<Bundle xmlns="http://hl7.org/fhir">
   <type value="transaction"></type>
   <entry>
      <fullUrl value="urn:uuid:aa246f9f-2a06-46df-bc99-5099d8725f0b"></fullUrl>
      <resource>
         <Patient xmlns="http://hl7.org/fhir">
            <meta>
               <profile value="https://www.medizininformatik-initiative.de/fhir/core/modul-person/StructureDefinition/Patient"></profile>
            </meta>
            <text>
               <status value="generated"></status>
               <div xmlns="http://www.w3.org/1999/xhtml"> 
                  <div class="hapiHeaderText">10206037 
                     <b>PATIENT_10206037 </b> 
                  </div> 
                  <table class="hapiPropertyTable"> 
                     <tbody> 
                        <tr> 
                           <td>Identifier</td> 
                           <td>10206037</td> 
                        </tr> 
                        <tr> 
                           <td>Address</td> 
                           <td> 
                              <span>Musterstrasse 1 </span> 
                              <br></br> 
                              <span>Berlin </span> 
                              <span>DE </span> 
                           </td> 
                        </tr> 
                        <tr> 
                           <td>Date of birth</td> 
                           <td> 
                              <span></span> 
                           </td> 
                        </tr> 
                     </tbody> 
                  </table> 
               </div>
            </text>
            <identifier>
               <use value="usual"></use>
               <type>
                  <coding>
                     <system value="http://terminology.hl7.org/CodeSystem/v2-0203"></system>
                     <code value="MR"></code>
                  </coding>
               </type>
               <system value="http://www.imi-mimic.de/patients"></system>
               <value value="10206037"></value>
            </identifier>
            <name>
               <use value="official"></use>
               <family value="Patient_10206037">
                  <extension url="http://hl7.org/fhir/StructureDefinition/humanname-own-name">
                     <valueString value="Patient_10206037"></valueString>
                  </extension>
               </family>
               <given value="10206037"></given>
            </name>
            <gender value="female"></gender>
            <birthDate>
               <extension url="http://hl7.org/fhir/StructureDefinition/data-absent-reason">
                  <valueCode value="masked"></valueCode>
               </extension>
            </birthDate>
            <deceasedBoolean value="false"></deceasedBoolean>
            <address>
               <type value="postal"></type>
               <line value="Musterstrasse 1">
                  <extension url="http://hl7.org/fhir/StructureDefinition/iso21090-ADXP-streetName">
                     <valueString value="Musterstrasse"></valueString>
                  </extension>
                  <extension url="http://hl7.org/fhir/StructureDefinition/iso21090-ADXP-houseNumber">
                     <valueString value="1"></valueString>
                  </extension>
               </line>
               <city value="Berlin"></city>
               <postalCode value="12043"></postalCode>
               <country value="DE"></country>
            </address>
            <maritalStatus>
               <coding>
                  <system value="http://hl7.org/fhir/ValueSet/marital-status"></system>
                  <code value="S"></code>
                  <display value="Never Married"></display>
               </coding>
            </maritalStatus>
         </Patient>
      </resource>
      <request>
         <method value="POST"></method>
         <url value="Patient"></url>
         <ifNoneExist value="identifier=http://www.imi-mimic.de/patients|10206037"></ifNoneExist>
      </request>
   </entry>
   <entry>
      <fullUrl value="urn:uuid:ff87e310-c3a5-46c3-945f-d94256322640"></fullUrl>
      <resource>
         <Organization xmlns="http://hl7.org/fhir">
            <identifier>
               <system value="http://www.imi-mimic.de"></system>
               <value value="hospital"></value>
            </identifier>
            <type>
               <coding>
                  <system value="http://hl7.org/fhir/organization-type"></system>
                  <code value="prov"></code>
                  <display value="Healthcare Provider"></display>
               </coding>
            </type>
            <name value="IMI-Mimic Hospital"></name>
         </Organization>
      </resource>
      <request>
         <method value="POST"></method>
         <url value="Organization"></url>
         <ifNoneExist value="identifier=http://www.imi-mimic.de|hospital"></ifNoneExist>
      </request>
   </entry>
   <entry>
      <fullUrl value="urn:uuid:5f7df0bd-0bad-4e72-b427-671acb66208f"></fullUrl>
      <resource>
         <Condition xmlns="http://hl7.org/fhir">
            <meta>
               <profile value="https://www.medizininformatik-initiative.de/fhir/core/modul-diagnose/StructureDefinition/Diagnose"></profile>
            </meta>
            <identifier>
               <system value="http://www.imi-mimic.de/diags"></system>
               <value value="null_8"></value>
            </identifier>
            <subject>
               <reference value="10206037"></reference>
            </subject>
            <recordedDate>
               <extension url="http://hl7.org/fhir/StructureDefinition/data-absent-reason">
                  <valueCode value="unknown"></valueCode>
               </extension>
            </recordedDate>
         </Condition>
      </resource>
      <request>
         <method value="POST"></method>
         <url value="Condition"></url>
         <ifNoneExist value="identifier=http://www.imi-mimic.de/diags|null_8"></ifNoneExist>
      </request>
   </entry>
   <entry>
      <fullUrl value="urn:uuid:09315ca3-c38a-4172-a598-a2a8f1443dfb"></fullUrl>
      <resource>
         <Condition xmlns="http://hl7.org/fhir">
            <meta>
               <profile value="https://www.medizininformatik-initiative.de/fhir/core/modul-diagnose/StructureDefinition/Diagnose"></profile>
            </meta>
            <identifier>
               <system value="http://www.imi-mimic.de/diags"></system>
               <value value="null_7"></value>
            </identifier>
            <subject>
               <reference value="10206037"></reference>
            </subject>
            <recordedDate>
               <extension url="http://hl7.org/fhir/StructureDefinition/data-absent-reason">
                  <valueCode value="unknown"></valueCode>
               </extension>
            </recordedDate>
         </Condition>
      </resource>
      <request>
         <method value="POST"></method>
         <url value="Condition"></url>
         <ifNoneExist value="identifier=http://www.imi-mimic.de/diags|null_7"></ifNoneExist>
      </request>
   </entry>
   <entry>
      <fullUrl value="urn:uuid:edb93f55-5450-41d4-94b2-339b3f6dbdac"></fullUrl>
      <resource>
         <Condition xmlns="http://hl7.org/fhir">
            <meta>
               <profile value="https://www.medizininformatik-initiative.de/fhir/core/modul-diagnose/StructureDefinition/Diagnose"></profile>
            </meta>
            <identifier>
               <system value="http://www.imi-mimic.de/diags"></system>
               <value value="null_6"></value>
            </identifier>
            <subject>
               <reference value="10206037"></reference>
            </subject>
            <recordedDate>
               <extension url="http://hl7.org/fhir/StructureDefinition/data-absent-reason">
                  <valueCode value="unknown"></valueCode>
               </extension>
            </recordedDate>
         </Condition>
      </resource>
      <request>
         <method value="POST"></method>
         <url value="Condition"></url>
         <ifNoneExist value="identifier=http://www.imi-mimic.de/diags|null_6"></ifNoneExist>
      </request>
   </entry>
   <entry>
      <fullUrl value="urn:uuid:4446c96b-d4b2-4489-91e9-ffd4c9e8978e"></fullUrl>
      <resource>
         <Condition xmlns="http://hl7.org/fhir">
            <meta>
               <profile value="https://www.medizininformatik-initiative.de/fhir/core/modul-diagnose/StructureDefinition/Diagnose"></profile>
            </meta>
            <identifier>
               <system value="http://www.imi-mimic.de/diags"></system>
               <value value="null_5"></value>
            </identifier>
            <subject>
               <reference value="10206037"></reference>
            </subject>
            <recordedDate>
               <extension url="http://hl7.org/fhir/StructureDefinition/data-absent-reason">
                  <valueCode value="unknown"></valueCode>
               </extension>
            </recordedDate>
         </Condition>
      </resource>
      <request>
         <method value="POST"></method>
         <url value="Condition"></url>
         <ifNoneExist value="identifier=http://www.imi-mimic.de/diags|null_5"></ifNoneExist>
      </request>
   </entry>
   <entry>
      <fullUrl value="urn:uuid:45e12995-29ef-4275-a7f6-e31be41b5e66"></fullUrl>
      <resource>
         <Condition xmlns="http://hl7.org/fhir">
            <meta>
               <profile value="https://www.medizininformatik-initiative.de/fhir/core/modul-diagnose/StructureDefinition/Diagnose"></profile>
            </meta>
            <identifier>
               <system value="http://www.imi-mimic.de/diags"></system>
               <value value="null_4"></value>
            </identifier>
            <subject>
               <reference value="10206037"></reference>
            </subject>
            <recordedDate>
               <extension url="http://hl7.org/fhir/StructureDefinition/data-absent-reason">
                  <valueCode value="unknown"></valueCode>
               </extension>
            </recordedDate>
         </Condition>
      </resource>
      <request>
         <method value="POST"></method>
         <url value="Condition"></url>
         <ifNoneExist value="identifier=http://www.imi-mimic.de/diags|null_4"></ifNoneExist>
      </request>
   </entry>
   <entry>
      <fullUrl value="urn:uuid:775fdc8a-4339-4fa4-8528-b097e6d873d8"></fullUrl>
      <resource>
         <Condition xmlns="http://hl7.org/fhir">
            <meta>
               <profile value="https://www.medizininformatik-initiative.de/fhir/core/modul-diagnose/StructureDefinition/Diagnose"></profile>
            </meta>
            <identifier>
               <system value="http://www.imi-mimic.de/diags"></system>
               <value value="null_3"></value>
            </identifier>
            <subject>
               <reference value="10206037"></reference>
            </subject>
            <recordedDate>
               <extension url="http://hl7.org/fhir/StructureDefinition/data-absent-reason">
                  <valueCode value="unknown"></valueCode>
               </extension>
            </recordedDate>
         </Condition>
      </resource>
      <request>
         <method value="POST"></method>
         <url value="Condition"></url>
         <ifNoneExist value="identifier=http://www.imi-mimic.de/diags|null_3"></ifNoneExist>
      </request>
   </entry>
   <entry>
      <fullUrl value="urn:uuid:07b8b938-83d8-4bce-a6a8-ba07dea75724"></fullUrl>
      <resource>
         <Condition xmlns="http://hl7.org/fhir">
            <meta>
               <profile value="https://www.medizininformatik-initiative.de/fhir/core/modul-diagnose/StructureDefinition/Diagnose"></profile>
            </meta>
            <identifier>
               <system value="http://www.imi-mimic.de/diags"></system>
               <value value="null_2"></value>
            </identifier>
            <subject>
               <reference value="10206037"></reference>
            </subject>
            <recordedDate>
               <extension url="http://hl7.org/fhir/StructureDefinition/data-absent-reason">
                  <valueCode value="unknown"></valueCode>
               </extension>
            </recordedDate>
         </Condition>
      </resource>
      <request>
         <method value="POST"></method>
         <url value="Condition"></url>
         <ifNoneExist value="identifier=http://www.imi-mimic.de/diags|null_2"></ifNoneExist>
      </request>
   </entry>
   <entry>
      <fullUrl value="urn:uuid:ad71f1ac-a275-4c6a-9810-793c345f0654"></fullUrl>
      <resource>
         <Condition xmlns="http://hl7.org/fhir">
            <meta>
               <profile value="https://www.medizininformatik-initiative.de/fhir/core/modul-diagnose/StructureDefinition/Diagnose"></profile>
            </meta>
            <identifier>
               <system value="http://www.imi-mimic.de/diags"></system>
               <value value="null_1"></value>
            </identifier>
            <subject>
               <reference value="10206037"></reference>
            </subject>
            <recordedDate>
               <extension url="http://hl7.org/fhir/StructureDefinition/data-absent-reason">
                  <valueCode value="unknown"></valueCode>
               </extension>
            </recordedDate>
         </Condition>
      </resource>
      <request>
         <method value="POST"></method>
         <url value="Condition"></url>
         <ifNoneExist value="identifier=http://www.imi-mimic.de/diags|null_1"></ifNoneExist>
      </request>
   </entry>
   <entry>
      <fullUrl value="urn:uuid:9c58d650-cf9b-4fb9-b921-4cd6761183b4"></fullUrl>
      <resource>
         <Location xmlns="http://hl7.org/fhir">
            <identifier>
               <system value="http://www.imi-mimic.de/location/Unknown"></system>
               <value value="Unknown"></value>
            </identifier>
            <name value="Unknown"></name>
            <type>
               <coding>
                  <system value="http://terminology.hl7.org/ValueSet/v3-ServiceDeliveryLocationRoleType"></system>
                  <code value="_ServiceDeliveryLocationRoleType"></code>
                  <display value="ServiceDeliveryLocationRoleType"></display>
               </coding>
            </type>
            <physicalType>
               <coding>
                  <system value="http://terminology.hl7.org/CodeSystem/location-physical-type"></system>
                  <code value="wa"></code>
                  <display value="Ward"></display>
               </coding>
            </physicalType>
            <managingOrganization>
               <reference value="urn:uuid:7db6d84d-c544-44b0-8555-12c77b7ea32b"></reference>
            </managingOrganization>
         </Location>
      </resource>
      <request>
         <method value="POST"></method>
         <url value="Location"></url>
         <ifNoneExist value="identifier=http://www.imi-mimic.de/location/Unknown|Unknown"></ifNoneExist>
      </request>
   </entry>
   <entry>
      <fullUrl value="urn:uuid:becb9c11-8e96-4ac7-bdf6-4341ec742502"></fullUrl>
      <resource>
         <Encounter xmlns="http://hl7.org/fhir">
            <status value="finished"></status>
            <class>
               <system value="https://www.medizininformatik-initiative.de/fhir/core/CodeSystem/EncounterClassAdditionsDE"></system>
               <code value="_ActEncounterCode"></code>
               <display value="ActEncounterCode"></display>
            </class>
            <period>
               <start value="2181-09-26T00:00:00+00:00"></start>
            </period>
            <location>
               <location>
                  <reference value="urn:uuid:9c58d650-cf9b-4fb9-b921-4cd6761183b4"></reference>
               </location>
               <status value="completed"></status>
               <physicalType>
                  <coding>
                     <system value="http://terminology.hl7.org/CodeSystem/location-physical-type"></system>
                     <code value="wa"></code>
                     <display value="Ward"></display>
                  </coding>
               </physicalType>
               <period>
                  <start value="2181-09-26T00:00:00+00:00"></start>
               </period>
            </location>
            <serviceProvider>
               <reference value="urn:uuid:7db6d84d-c544-44b0-8555-12c77b7ea32b"></reference>
            </serviceProvider>
            <partOf>
               <reference value="urn:uuid:ac6cf7bc-a74b-44a2-9dc6-ee4a8fa27d22"></reference>
            </partOf>
         </Encounter>
      </resource>
      <request>
         <method value="POST"></method>
         <url value="Encounter"></url>
         <ifNoneExist value="identifier=null|null"></ifNoneExist>
      </request>
   </entry>
   <entry>
      <fullUrl value="urn:uuid:758e7680-680b-4d35-ad4a-9823652e269b"></fullUrl>
      <resource>
         <Location xmlns="http://hl7.org/fhir">
            <identifier>
               <system value="http://www.imi-mimic.de/location/Obstetrics_(Postpartum_&amp;_Antepartum)"></system>
               <value value="Obstetrics (Postpartum &amp; Antepartum)"></value>
            </identifier>
            <name value="Obstetrics (Postpartum &amp; Antepartum)"></name>
            <type>
               <coding>
                  <system value="http://terminology.hl7.org/ValueSet/v3-ServiceDeliveryLocationRoleType"></system>
                  <code value="_ServiceDeliveryLocationRoleType"></code>
                  <display value="ServiceDeliveryLocationRoleType"></display>
               </coding>
            </type>
            <physicalType>
               <coding>
                  <system value="http://terminology.hl7.org/CodeSystem/location-physical-type"></system>
                  <code value="wa"></code>
                  <display value="Ward"></display>
               </coding>
            </physicalType>
            <managingOrganization>
               <reference value="urn:uuid:86714d0d-3aa5-47df-98c3-9592268172e1"></reference>
            </managingOrganization>
         </Location>
      </resource>
      <request>
         <method value="POST"></method>
         <url value="Location"></url>
         <ifNoneExist value="identifier=http://www.imi-mimic.de/location/Obstetrics_(Postpartum_&amp;_Antepartum)|Obstetrics (Postpartum &amp; Antepartum)"></ifNoneExist>
      </request>
   </entry>
   <entry>
      <fullUrl value="urn:uuid:4afb7bd5-de83-4108-accf-a0b04a1b0a09"></fullUrl>
      <resource>
         <Encounter xmlns="http://hl7.org/fhir">
            <status value="finished"></status>
            <class>
               <system value="https://www.medizininformatik-initiative.de/fhir/core/CodeSystem/EncounterClassAdditionsDE"></system>
               <code value="_ActEncounterCode"></code>
               <display value="ActEncounterCode"></display>
            </class>
            <period>
               <start value="2181-09-25T00:00:00+00:00"></start>
               <end value="2181-09-26T00:00:00+00:00"></end>
            </period>
            <location>
               <location>
                  <reference value="urn:uuid:758e7680-680b-4d35-ad4a-9823652e269b"></reference>
               </location>
               <status value="completed"></status>
               <physicalType>
                  <coding>
                     <system value="http://terminology.hl7.org/CodeSystem/location-physical-type"></system>
                     <code value="wa"></code>
                     <display value="Ward"></display>
                  </coding>
               </physicalType>
               <period>
                  <start value="2181-09-25T00:00:00+00:00"></start>
                  <end value="2181-09-26T00:00:00+00:00"></end>
               </period>
            </location>
            <serviceProvider>
               <reference value="urn:uuid:86714d0d-3aa5-47df-98c3-9592268172e1"></reference>
            </serviceProvider>
            <partOf>
               <reference value="urn:uuid:ac6cf7bc-a74b-44a2-9dc6-ee4a8fa27d22"></reference>
            </partOf>
         </Encounter>
      </resource>
      <request>
         <method value="POST"></method>
         <url value="Encounter"></url>
         <ifNoneExist value="identifier=null|null"></ifNoneExist>
      </request>
   </entry>
   <entry>
      <fullUrl value="urn:uuid:ac6cf7bc-a74b-44a2-9dc6-ee4a8fa27d22"></fullUrl>
      <resource>
         <Encounter xmlns="http://hl7.org/fhir">
            <meta>
               <profile value="https://www.medizininformatik-initiative.de/fhir/core/modul-fall/StructureDefinition/KontaktGesundheitseinrichtung"></profile>
            </meta>
            <identifier>
               <type>
                  <coding>
                     <system value="http://terminology.hl7.org/CodeSystem/v2-0203"></system>
                     <code value="VN"></code>
                  </coding>
               </type>
               <system value="http://www.imi-mimic.de/encs"></system>
               <value value="21866450"></value>
            </identifier>
            <status value="finished"></status>
            <class>
               <system value="https://www.medizininformatik-initiative.de/fhir/core/ValueSet/EncounterClassDE"></system>
               <code value="O"></code>
               <display value="ambulant"></display>
            </class>
            <period>
               <start value="2181-09-25T00:00:00+00:00"></start>
               <end value="2181-09-26T00:00:00+00:00"></end>
            </period>
            <diagnosis>
               <condition>
                  <reference value="urn:uuid:5f7df0bd-0bad-4e72-b427-671acb66208f"></reference>
               </condition>
               <rank value="8"></rank>
            </diagnosis>
            <diagnosis>
               <condition>
                  <reference value="urn:uuid:09315ca3-c38a-4172-a598-a2a8f1443dfb"></reference>
               </condition>
               <rank value="7"></rank>
            </diagnosis>
            <diagnosis>
               <condition>
                  <reference value="urn:uuid:edb93f55-5450-41d4-94b2-339b3f6dbdac"></reference>
               </condition>
               <rank value="6"></rank>
            </diagnosis>
            <diagnosis>
               <condition>
                  <reference value="urn:uuid:4446c96b-d4b2-4489-91e9-ffd4c9e8978e"></reference>
               </condition>
               <rank value="5"></rank>
            </diagnosis>
            <diagnosis>
               <condition>
                  <reference value="urn:uuid:45e12995-29ef-4275-a7f6-e31be41b5e66"></reference>
               </condition>
               <rank value="4"></rank>
            </diagnosis>
            <diagnosis>
               <condition>
                  <reference value="urn:uuid:775fdc8a-4339-4fa4-8528-b097e6d873d8"></reference>
               </condition>
               <rank value="3"></rank>
            </diagnosis>
            <diagnosis>
               <condition>
                  <reference value="urn:uuid:07b8b938-83d8-4bce-a6a8-ba07dea75724"></reference>
               </condition>
               <rank value="2"></rank>
            </diagnosis>
            <diagnosis>
               <condition>
                  <reference value="urn:uuid:ad71f1ac-a275-4c6a-9810-793c345f0654"></reference>
               </condition>
               <rank value="1"></rank>
            </diagnosis>
            <hospitalization>
               <dischargeDisposition>
                  <coding>
                     <system value="https://www.medizininformatik-initiative.de/fhir/core/modul-fall/CodeSystem/Entlassungsgrund"></system>
                     <code value="019"></code>
                     <display value="Behandlung regulaer beendet, keine Angabe"></display>
                  </coding>
               </dischargeDisposition>
            </hospitalization>
         </Encounter>
      </resource>
      <request>
         <method value="POST"></method>
         <url value="Encounter"></url>
         <ifNoneExist value="identifier=http://www.imi-mimic.de/encs|21866450"></ifNoneExist>
      </request>
   </entry>
   <entry>
      <fullUrl value="urn:uuid:d060c1b9-5966-4d29-ac1e-ee6cbdb8438a"></fullUrl>
      <resource>
         <Medication xmlns="http://hl7.org/fhir">
            <text>
               <status value="generated"></status>
            </text>
         </Medication>
      </resource>
      <request>
         <method value="POST"></method>
         <url value="Medication"></url>
         <ifNoneExist value="code=null"></ifNoneExist>
      </request>
   </entry>
   <entry>
      <resource>
         <MedicationAdministration xmlns="http://hl7.org/fhir">
            <meta>
               <profile value="https://www.medizininformatik-initiative.de/fhir/core/modul-medikation/StructureDefinition/MedicationAdministration"></profile>
            </meta>
            <identifier>
               <system value="http://www.imi-mimic.de/prescriptions"></system>
               <value value="21866450_0"></value>
            </identifier>
            <status value="completed"></status>
            <medicationReference>
               <reference value="urn:uuid:d060c1b9-5966-4d29-ac1e-ee6cbdb8438a"></reference>
            </medicationReference>
            <subject>
               <reference value="10206037"></reference>
            </subject>
            <context>
               <reference value="21866450"></reference>
            </context>
            <effectivePeriod>
               <start value="2181-09-26T00:00:00+00:00"></start>
               <end value="2181-09-27T00:00:00+00:00"></end>
            </effectivePeriod>
         </MedicationAdministration>
      </resource>
      <request>
         <method value="POST"></method>
         <url value="MedicationAdministration"></url>
      </request>
   </entry>
   <entry>
      <resource>
         <MedicationAdministration xmlns="http://hl7.org/fhir">
            <meta>
               <profile value="https://www.medizininformatik-initiative.de/fhir/core/modul-medikation/StructureDefinition/MedicationAdministration"></profile>
            </meta>
            <identifier>
               <system value="http://www.imi-mimic.de/prescriptions"></system>
               <value value="21866450_1"></value>
            </identifier>
            <status value="completed"></status>
            <medicationReference>
               <reference value="urn:uuid:d060c1b9-5966-4d29-ac1e-ee6cbdb8438a"></reference>
            </medicationReference>
            <subject>
               <reference value="10206037"></reference>
            </subject>
            <context>
               <reference value="21866450"></reference>
            </context>
            <effectivePeriod>
               <start value="2181-09-26T00:00:00+00:00"></start>
               <end value="2181-09-27T00:00:00+00:00"></end>
            </effectivePeriod>
         </MedicationAdministration>
      </resource>
      <request>
         <method value="POST"></method>
         <url value="MedicationAdministration"></url>
      </request>
   </entry>
   <entry>
      <resource>
         <MedicationAdministration xmlns="http://hl7.org/fhir">
            <meta>
               <profile value="https://www.medizininformatik-initiative.de/fhir/core/modul-medikation/StructureDefinition/MedicationAdministration"></profile>
            </meta>
            <identifier>
               <system value="http://www.imi-mimic.de/prescriptions"></system>
               <value value="21866450_2"></value>
            </identifier>
            <status value="completed"></status>
            <medicationReference>
               <reference value="urn:uuid:d060c1b9-5966-4d29-ac1e-ee6cbdb8438a"></reference>
            </medicationReference>
            <subject>
               <reference value="10206037"></reference>
            </subject>
            <context>
               <reference value="21866450"></reference>
            </context>
            <effectivePeriod>
               <start value="2181-09-26T00:00:00+00:00"></start>
               <end value="2181-09-27T00:00:00+00:00"></end>
            </effectivePeriod>
         </MedicationAdministration>
      </resource>
      <request>
         <method value="POST"></method>
         <url value="MedicationAdministration"></url>
      </request>
   </entry>
   <entry>
      <resource>
         <MedicationAdministration xmlns="http://hl7.org/fhir">
            <meta>
               <profile value="https://www.medizininformatik-initiative.de/fhir/core/modul-medikation/StructureDefinition/MedicationAdministration"></profile>
            </meta>
            <identifier>
               <system value="http://www.imi-mimic.de/prescriptions"></system>
               <value value="21866450_3"></value>
            </identifier>
            <status value="completed"></status>
            <medicationReference>
               <reference value="urn:uuid:d060c1b9-5966-4d29-ac1e-ee6cbdb8438a"></reference>
            </medicationReference>
            <subject>
               <reference value="10206037"></reference>
            </subject>
            <context>
               <reference value="21866450"></reference>
            </context>
            <effectivePeriod>
               <start value="2181-09-26T00:00:00+00:00"></start>
               <end value="2181-09-27T00:00:00+00:00"></end>
            </effectivePeriod>
         </MedicationAdministration>
      </resource>
      <request>
         <method value="POST"></method>
         <url value="MedicationAdministration"></url>
      </request>
   </entry>
   <entry>
      <resource>
         <MedicationAdministration xmlns="http://hl7.org/fhir">
            <meta>
               <profile value="https://www.medizininformatik-initiative.de/fhir/core/modul-medikation/StructureDefinition/MedicationAdministration"></profile>
            </meta>
            <identifier>
               <system value="http://www.imi-mimic.de/prescriptions"></system>
               <value value="21866450_4"></value>
            </identifier>
            <status value="completed"></status>
            <medicationReference>
               <reference value="urn:uuid:d060c1b9-5966-4d29-ac1e-ee6cbdb8438a"></reference>
            </medicationReference>
            <subject>
               <reference value="10206037"></reference>
            </subject>
            <context>
               <reference value="21866450"></reference>
            </context>
            <effectivePeriod>
               <start value="2181-09-26T00:00:00+00:00"></start>
               <end value="2181-09-27T00:00:00+00:00"></end>
            </effectivePeriod>
         </MedicationAdministration>
      </resource>
      <request>
         <method value="POST"></method>
         <url value="MedicationAdministration"></url>
      </request>
   </entry>
   <entry>
      <resource>
         <MedicationAdministration xmlns="http://hl7.org/fhir">
            <meta>
               <profile value="https://www.medizininformatik-initiative.de/fhir/core/modul-medikation/StructureDefinition/MedicationAdministration"></profile>
            </meta>
            <identifier>
               <system value="http://www.imi-mimic.de/prescriptions"></system>
               <value value="21866450_5"></value>
            </identifier>
            <status value="completed"></status>
            <medicationReference>
               <reference value="urn:uuid:d060c1b9-5966-4d29-ac1e-ee6cbdb8438a"></reference>
            </medicationReference>
            <subject>
               <reference value="10206037"></reference>
            </subject>
            <context>
               <reference value="21866450"></reference>
            </context>
            <effectivePeriod>
               <start value="2181-09-26T00:00:00+00:00"></start>
               <end value="2181-09-27T00:00:00+00:00"></end>
            </effectivePeriod>
         </MedicationAdministration>
      </resource>
      <request>
         <method value="POST"></method>
         <url value="MedicationAdministration"></url>
      </request>
   </entry>
   <entry>
      <resource>
         <MedicationAdministration xmlns="http://hl7.org/fhir">
            <meta>
               <profile value="https://www.medizininformatik-initiative.de/fhir/core/modul-medikation/StructureDefinition/MedicationAdministration"></profile>
            </meta>
            <identifier>
               <system value="http://www.imi-mimic.de/prescriptions"></system>
               <value value="21866450_6"></value>
            </identifier>
            <status value="completed"></status>
            <medicationReference>
               <reference value="urn:uuid:d060c1b9-5966-4d29-ac1e-ee6cbdb8438a"></reference>
            </medicationReference>
            <subject>
               <reference value="10206037"></reference>
            </subject>
            <context>
               <reference value="21866450"></reference>
            </context>
            <effectivePeriod>
               <start value="2181-09-26T00:00:00+00:00"></start>
               <end value="2181-09-27T00:00:00+00:00"></end>
            </effectivePeriod>
         </MedicationAdministration>
      </resource>
      <request>
         <method value="POST"></method>
         <url value="MedicationAdministration"></url>
      </request>
   </entry>
   <entry>
      <resource>
         <MedicationAdministration xmlns="http://hl7.org/fhir">
            <meta>
               <profile value="https://www.medizininformatik-initiative.de/fhir/core/modul-medikation/StructureDefinition/MedicationAdministration"></profile>
            </meta>
            <identifier>
               <system value="http://www.imi-mimic.de/prescriptions"></system>
               <value value="21866450_7"></value>
            </identifier>
            <status value="completed"></status>
            <medicationReference>
               <reference value="urn:uuid:d060c1b9-5966-4d29-ac1e-ee6cbdb8438a"></reference>
            </medicationReference>
            <subject>
               <reference value="10206037"></reference>
            </subject>
            <context>
               <reference value="21866450"></reference>
            </context>
            <effectivePeriod>
               <start value="2181-09-26T00:00:00+00:00"></start>
               <end value="2181-09-27T00:00:00+00:00"></end>
            </effectivePeriod>
         </MedicationAdministration>
      </resource>
      <request>
         <method value="POST"></method>
         <url value="MedicationAdministration"></url>
      </request>
   </entry>
   <entry>
      <resource>
         <MedicationAdministration xmlns="http://hl7.org/fhir">
            <meta>
               <profile value="https://www.medizininformatik-initiative.de/fhir/core/modul-medikation/StructureDefinition/MedicationAdministration"></profile>
            </meta>
            <identifier>
               <system value="http://www.imi-mimic.de/prescriptions"></system>
               <value value="21866450_8"></value>
            </identifier>
            <status value="completed"></status>
            <medicationReference>
               <reference value="urn:uuid:d060c1b9-5966-4d29-ac1e-ee6cbdb8438a"></reference>
            </medicationReference>
            <subject>
               <reference value="10206037"></reference>
            </subject>
            <context>
               <reference value="21866450"></reference>
            </context>
            <effectivePeriod>
               <start value="2181-09-26T00:00:00+00:00"></start>
               <end value="2181-09-27T00:00:00+00:00"></end>
            </effectivePeriod>
         </MedicationAdministration>
      </resource>
      <request>
         <method value="POST"></method>
         <url value="MedicationAdministration"></url>
      </request>
   </entry>
</Bundle>