<Bundle xmlns="http://hl7.org/fhir">
   <type value="transaction"></type>
   <entry>
      <fullUrl value="urn:uuid:f26dd547-1040-45b9-82fa-b7b107107a99"></fullUrl>
      <resource>
         <Patient xmlns="http://hl7.org/fhir">
            <meta>
               <profile value="https://www.medizininformatik-initiative.de/fhir/core/modul-person/StructureDefinition/Patient"></profile>
            </meta>
            <text>
               <status value="generated"></status>
               <div xmlns="http://www.w3.org/1999/xhtml"> 
                  <div class="hapiHeaderText">10020740 
                     <b>PATIENT_10020740 </b> 
                  </div> 
                  <table class="hapiPropertyTable"> 
                     <tbody> 
                        <tr> 
                           <td>Identifier</td> 
                           <td>10020740</td> 
                        </tr> 
                        <tr> 
                           <td>Address</td> 
                           <td> 
                              <span>Musterstrasse 1 </span> 
                              <br></br> 
                              <span>Berlin </span> 
                              <span>DE </span> 
                           </td> 
                        </tr> 
                        <tr> 
                           <td>Date of birth</td> 
                           <td> 
                              <span>01 January 2094</span> 
                           </td> 
                        </tr> 
                     </tbody> 
                  </table> 
               </div>
            </text>
            <identifier>
               <use value="usual"></use>
               <type>
                  <coding>
                     <system value="http://terminology.hl7.org/CodeSystem/v2-0203"></system>
                     <code value="MR"></code>
                  </coding>
               </type>
               <system value="http://www.umontreal.ca/patients"></system>
               <value value="10020740"></value>
            </identifier>
            <name>
               <use value="official"></use>
               <family value="Patient_10020740">
                  <extension url="http://hl7.org/fhir/StructureDefinition/humanname-own-name">
                     <valueString value="Patient_10020740"></valueString>
                  </extension>
               </family>
               <given value="10020740"></given>
            </name>
            <gender value="male"></gender>
            <birthDate value="2094-01-01">
               <extension url="http://hl7.org/fhir/StructureDefinition/data-absent-reason">
                  <valueCode value="masked"></valueCode>
               </extension>
            </birthDate>
            <deceasedBoolean value="false"></deceasedBoolean>
            <address>
               <type value="postal"></type>
               <line value="Musterstrasse 1">
                  <extension url="http://hl7.org/fhir/StructureDefinition/iso21090-ADXP-streetName">
                     <valueString value="Musterstrasse"></valueString>
                  </extension>
                  <extension url="http://hl7.org/fhir/StructureDefinition/iso21090-ADXP-houseNumber">
                     <valueString value="1"></valueString>
                  </extension>
               </line>
               <city value="Berlin"></city>
               <postalCode value="12043"></postalCode>
               <country value="DE"></country>
            </address>
            <maritalStatus>
               <coding>
                  <system value="http://hl7.org/fhir/ValueSet/marital-status"></system>
                  <code value="S"></code>
                  <display value="Never Married"></display>
               </coding>
            </maritalStatus>
         </Patient>
      </resource>
      <request>
         <method value="POST"></method>
         <url value="Patient"></url>
         <ifNoneExist value="identifier=http://www.umontreal.ca/patients|10020740"></ifNoneExist>
      </request>
   </entry>
   <entry>
      <fullUrl value="urn:uuid:2cd27265-a906-45af-ac9d-9a51f1ac6aae"></fullUrl>
      <resource>
         <Organization xmlns="http://hl7.org/fhir">
            <identifier>
               <system value="http://www.umontreal.ca"></system>
               <value value="hospital"></value>
            </identifier>
            <type>
               <coding>
                  <system value="http://hl7.org/fhir/organization-type"></system>
                  <code value="prov"></code>
                  <display value="Healthcare Provider"></display>
               </coding>
            </type>
            <name value="IMI-Mimic Hospital"></name>
         </Organization>
      </resource>
      <request>
         <method value="POST"></method>
         <url value="Organization"></url>
         <ifNoneExist value="identifier=http://www.umontreal.ca|hospital"></ifNoneExist>
      </request>
   </entry>
   <entry>
      <fullUrl value="urn:uuid:6d6827d0-8cc7-478d-aacd-f9d19b167eb6"></fullUrl>
      <resource>
         <Condition xmlns="http://hl7.org/fhir">
            <meta>
               <profile value="https://www.medizininformatik-initiative.de/fhir/core/modul-diagnose/StructureDefinition/Diagnose"></profile>
            </meta>
            <identifier>
               <system value="http://www.imi-mimic.de/diags"></system>
               <value value="null_6"></value>
            </identifier>
            <subject>
               <reference value="10020740"></reference>
            </subject>
            <recordedDate>
               <extension url="http://hl7.org/fhir/StructureDefinition/data-absent-reason">
                  <valueCode value="unknown"></valueCode>
               </extension>
            </recordedDate>
         </Condition>
      </resource>
      <request>
         <method value="POST"></method>
         <url value="Condition"></url>
         <ifNoneExist value="identifier=http://www.imi-mimic.de/diags|null_6"></ifNoneExist>
      </request>
   </entry>
   <entry>
      <fullUrl value="urn:uuid:3a996158-3b2d-4af0-8e2f-58c20c2a2bf3"></fullUrl>
      <resource>
         <Condition xmlns="http://hl7.org/fhir">
            <meta>
               <profile value="https://www.medizininformatik-initiative.de/fhir/core/modul-diagnose/StructureDefinition/Diagnose"></profile>
            </meta>
            <identifier>
               <system value="http://www.imi-mimic.de/diags"></system>
               <value value="null_5"></value>
            </identifier>
            <subject>
               <reference value="10020740"></reference>
            </subject>
            <recordedDate>
               <extension url="http://hl7.org/fhir/StructureDefinition/data-absent-reason">
                  <valueCode value="unknown"></valueCode>
               </extension>
            </recordedDate>
         </Condition>
      </resource>
      <request>
         <method value="POST"></method>
         <url value="Condition"></url>
         <ifNoneExist value="identifier=http://www.imi-mimic.de/diags|null_5"></ifNoneExist>
      </request>
   </entry>
   <entry>
      <fullUrl value="urn:uuid:d8b69cf1-f18c-4eed-b6fa-316a63578b2e"></fullUrl>
      <resource>
         <Condition xmlns="http://hl7.org/fhir">
            <meta>
               <profile value="https://www.medizininformatik-initiative.de/fhir/core/modul-diagnose/StructureDefinition/Diagnose"></profile>
            </meta>
            <identifier>
               <system value="http://www.imi-mimic.de/diags"></system>
               <value value="null_4"></value>
            </identifier>
            <subject>
               <reference value="10020740"></reference>
            </subject>
            <recordedDate>
               <extension url="http://hl7.org/fhir/StructureDefinition/data-absent-reason">
                  <valueCode value="unknown"></valueCode>
               </extension>
            </recordedDate>
         </Condition>
      </resource>
      <request>
         <method value="POST"></method>
         <url value="Condition"></url>
         <ifNoneExist value="identifier=http://www.imi-mimic.de/diags|null_4"></ifNoneExist>
      </request>
   </entry>
   <entry>
      <fullUrl value="urn:uuid:b008fdd0-bbd6-4b2f-9f3f-ee33ef012eeb"></fullUrl>
      <resource>
         <Condition xmlns="http://hl7.org/fhir">
            <meta>
               <profile value="https://www.medizininformatik-initiative.de/fhir/core/modul-diagnose/StructureDefinition/Diagnose"></profile>
            </meta>
            <identifier>
               <system value="http://www.imi-mimic.de/diags"></system>
               <value value="null_3"></value>
            </identifier>
            <subject>
               <reference value="10020740"></reference>
            </subject>
            <recordedDate>
               <extension url="http://hl7.org/fhir/StructureDefinition/data-absent-reason">
                  <valueCode value="unknown"></valueCode>
               </extension>
            </recordedDate>
         </Condition>
      </resource>
      <request>
         <method value="POST"></method>
         <url value="Condition"></url>
         <ifNoneExist value="identifier=http://www.imi-mimic.de/diags|null_3"></ifNoneExist>
      </request>
   </entry>
   <entry>
      <fullUrl value="urn:uuid:df3c5023-f012-4cfb-abc7-4fc599623110"></fullUrl>
      <resource>
         <Condition xmlns="http://hl7.org/fhir">
            <meta>
               <profile value="https://www.medizininformatik-initiative.de/fhir/core/modul-diagnose/StructureDefinition/Diagnose"></profile>
            </meta>
            <identifier>
               <system value="http://www.imi-mimic.de/diags"></system>
               <value value="null_2"></value>
            </identifier>
            <subject>
               <reference value="10020740"></reference>
            </subject>
            <recordedDate>
               <extension url="http://hl7.org/fhir/StructureDefinition/data-absent-reason">
                  <valueCode value="unknown"></valueCode>
               </extension>
            </recordedDate>
         </Condition>
      </resource>
      <request>
         <method value="POST"></method>
         <url value="Condition"></url>
         <ifNoneExist value="identifier=http://www.imi-mimic.de/diags|null_2"></ifNoneExist>
      </request>
   </entry>
   <entry>
      <fullUrl value="urn:uuid:c391960c-9413-467a-8b7a-9d3580b623ff"></fullUrl>
      <resource>
         <Condition xmlns="http://hl7.org/fhir">
            <meta>
               <profile value="https://www.medizininformatik-initiative.de/fhir/core/modul-diagnose/StructureDefinition/Diagnose"></profile>
            </meta>
            <identifier>
               <system value="http://www.imi-mimic.de/diags"></system>
               <value value="null_1"></value>
            </identifier>
            <subject>
               <reference value="10020740"></reference>
            </subject>
            <recordedDate>
               <extension url="http://hl7.org/fhir/StructureDefinition/data-absent-reason">
                  <valueCode value="unknown"></valueCode>
               </extension>
            </recordedDate>
         </Condition>
      </resource>
      <request>
         <method value="POST"></method>
         <url value="Condition"></url>
         <ifNoneExist value="identifier=http://www.imi-mimic.de/diags|null_1"></ifNoneExist>
      </request>
   </entry>
   <entry>
      <fullUrl value="urn:uuid:4338d3a9-d48a-46dd-bfd8-6fd8722080b0"></fullUrl>
      <resource>
         <Location xmlns="http://hl7.org/fhir">
            <identifier>
               <system value="http://www.imi-mimic.de/location/Unknown"></system>
               <value value="Unknown"></value>
            </identifier>
            <name value="Unknown"></name>
            <type>
               <coding>
                  <system value="http://terminology.hl7.org/ValueSet/v3-ServiceDeliveryLocationRoleType"></system>
                  <code value="_ServiceDeliveryLocationRoleType"></code>
                  <display value="ServiceDeliveryLocationRoleType"></display>
               </coding>
            </type>
            <physicalType>
               <coding>
                  <system value="http://terminology.hl7.org/CodeSystem/location-physical-type"></system>
                  <code value="wa"></code>
                  <display value="Ward"></display>
               </coding>
            </physicalType>
            <managingOrganization>
               <reference value="urn:uuid:36ad2032-0307-431e-be03-410e49e859e4"></reference>
            </managingOrganization>
         </Location>
      </resource>
      <request>
         <method value="POST"></method>
         <url value="Location"></url>
         <ifNoneExist value="identifier=http://www.imi-mimic.de/location/Unknown|Unknown"></ifNoneExist>
      </request>
   </entry>
   <entry>
      <fullUrl value="urn:uuid:cc9f8489-63aa-4b35-9c41-d7472d93c6d5"></fullUrl>
      <resource>
         <Encounter xmlns="http://hl7.org/fhir">
            <status value="finished"></status>
            <class>
               <system value="https://www.medizininformatik-initiative.de/fhir/core/CodeSystem/EncounterClassAdditionsDE"></system>
               <code value="_ActEncounterCode"></code>
               <display value="ActEncounterCode"></display>
            </class>
            <period>
               <start value="2150-09-15T00:00:00+00:00"></start>
            </period>
            <location>
               <location>
                  <reference value="urn:uuid:4338d3a9-d48a-46dd-bfd8-6fd8722080b0"></reference>
               </location>
               <status value="completed"></status>
               <physicalType>
                  <coding>
                     <system value="http://terminology.hl7.org/CodeSystem/location-physical-type"></system>
                     <code value="wa"></code>
                     <display value="Ward"></display>
                  </coding>
               </physicalType>
               <period>
                  <start value="2150-09-15T00:00:00+00:00"></start>
               </period>
            </location>
            <serviceProvider>
               <reference value="urn:uuid:36ad2032-0307-431e-be03-410e49e859e4"></reference>
            </serviceProvider>
            <partOf>
               <reference value="urn:uuid:f356978f-fdee-48c8-9842-7c239c71eda6"></reference>
            </partOf>
         </Encounter>
      </resource>
      <request>
         <method value="POST"></method>
         <url value="Encounter"></url>
         <ifNoneExist value="identifier=null|null"></ifNoneExist>
      </request>
   </entry>
   <entry>
      <fullUrl value="urn:uuid:74b6b06e-2353-46f7-beaa-b534039bac18"></fullUrl>
      <resource>
         <Location xmlns="http://hl7.org/fhir">
            <identifier>
               <system value="http://www.imi-mimic.de/location/Emergency_Department_Observation"></system>
               <value value="Emergency Department Observation"></value>
            </identifier>
            <name value="Emergency Department Observation"></name>
            <type>
               <coding>
                  <system value="http://terminology.hl7.org/ValueSet/v3-ServiceDeliveryLocationRoleType"></system>
                  <code value="_ServiceDeliveryLocationRoleType"></code>
                  <display value="ServiceDeliveryLocationRoleType"></display>
               </coding>
            </type>
            <physicalType>
               <coding>
                  <system value="http://terminology.hl7.org/CodeSystem/location-physical-type"></system>
                  <code value="wa"></code>
                  <display value="Ward"></display>
               </coding>
            </physicalType>
            <managingOrganization>
               <reference value="urn:uuid:6e027ea7-33aa-4009-845a-6353523d8b0f"></reference>
            </managingOrganization>
         </Location>
      </resource>
      <request>
         <method value="POST"></method>
         <url value="Location"></url>
         <ifNoneExist value="identifier=http://www.imi-mimic.de/location/Emergency_Department_Observation|Emergency Department Observation"></ifNoneExist>
      </request>
   </entry>
   <entry>
      <fullUrl value="urn:uuid:61fd7320-08c8-495b-98df-d7bbe80bbd17"></fullUrl>
      <resource>
         <Encounter xmlns="http://hl7.org/fhir">
            <status value="finished"></status>
            <class>
               <system value="https://www.medizininformatik-initiative.de/fhir/core/CodeSystem/EncounterClassAdditionsDE"></system>
               <code value="_ActEncounterCode"></code>
               <display value="ActEncounterCode"></display>
            </class>
            <period>
               <start value="2150-09-15T00:00:00+00:00"></start>
               <end value="2150-09-15T00:00:00+00:00"></end>
            </period>
            <location>
               <location>
                  <reference value="urn:uuid:74b6b06e-2353-46f7-beaa-b534039bac18"></reference>
               </location>
               <status value="completed"></status>
               <physicalType>
                  <coding>
                     <system value="http://terminology.hl7.org/CodeSystem/location-physical-type"></system>
                     <code value="wa"></code>
                     <display value="Ward"></display>
                  </coding>
               </physicalType>
               <period>
                  <start value="2150-09-15T00:00:00+00:00"></start>
                  <end value="2150-09-15T00:00:00+00:00"></end>
               </period>
            </location>
            <serviceProvider>
               <reference value="urn:uuid:6e027ea7-33aa-4009-845a-6353523d8b0f"></reference>
            </serviceProvider>
            <partOf>
               <reference value="urn:uuid:f356978f-fdee-48c8-9842-7c239c71eda6"></reference>
            </partOf>
         </Encounter>
      </resource>
      <request>
         <method value="POST"></method>
         <url value="Encounter"></url>
         <ifNoneExist value="identifier=null|null"></ifNoneExist>
      </request>
   </entry>
   <entry>
      <fullUrl value="urn:uuid:02cc4162-33a3-4ed3-848f-0ebb7ab06076"></fullUrl>
      <resource>
         <Location xmlns="http://hl7.org/fhir">
            <identifier>
               <system value="http://www.imi-mimic.de/location/Emergency_Department"></system>
               <value value="Emergency Department"></value>
            </identifier>
            <name value="Emergency Department"></name>
            <type>
               <coding>
                  <system value="http://terminology.hl7.org/ValueSet/v3-ServiceDeliveryLocationRoleType"></system>
                  <code value="_ServiceDeliveryLocationRoleType"></code>
                  <display value="ServiceDeliveryLocationRoleType"></display>
               </coding>
            </type>
            <physicalType>
               <coding>
                  <system value="http://terminology.hl7.org/CodeSystem/location-physical-type"></system>
                  <code value="wa"></code>
                  <display value="Ward"></display>
               </coding>
            </physicalType>
            <managingOrganization>
               <reference value="urn:uuid:3e5cb101-0673-4bb5-85dd-9e4192001f7c"></reference>
            </managingOrganization>
         </Location>
      </resource>
      <request>
         <method value="POST"></method>
         <url value="Location"></url>
         <ifNoneExist value="identifier=http://www.imi-mimic.de/location/Emergency_Department|Emergency Department"></ifNoneExist>
      </request>
   </entry>
   <entry>
      <fullUrl value="urn:uuid:e83a09f6-0bf9-4cb1-bc13-73138028f94a"></fullUrl>
      <resource>
         <Encounter xmlns="http://hl7.org/fhir">
            <status value="finished"></status>
            <class>
               <system value="https://www.medizininformatik-initiative.de/fhir/core/CodeSystem/EncounterClassAdditionsDE"></system>
               <code value="_ActEncounterCode"></code>
               <display value="ActEncounterCode"></display>
            </class>
            <period>
               <start value="2150-09-15T00:00:00+00:00"></start>
               <end value="2150-09-15T00:00:00+00:00"></end>
            </period>
            <location>
               <location>
                  <reference value="urn:uuid:02cc4162-33a3-4ed3-848f-0ebb7ab06076"></reference>
               </location>
               <status value="completed"></status>
               <physicalType>
                  <coding>
                     <system value="http://terminology.hl7.org/CodeSystem/location-physical-type"></system>
                     <code value="wa"></code>
                     <display value="Ward"></display>
                  </coding>
               </physicalType>
               <period>
                  <start value="2150-09-15T00:00:00+00:00"></start>
                  <end value="2150-09-15T00:00:00+00:00"></end>
               </period>
            </location>
            <serviceProvider>
               <reference value="urn:uuid:3e5cb101-0673-4bb5-85dd-9e4192001f7c"></reference>
            </serviceProvider>
            <partOf>
               <reference value="urn:uuid:f356978f-fdee-48c8-9842-7c239c71eda6"></reference>
            </partOf>
         </Encounter>
      </resource>
      <request>
         <method value="POST"></method>
         <url value="Encounter"></url>
         <ifNoneExist value="identifier=null|null"></ifNoneExist>
      </request>
   </entry>
   <entry>
      <fullUrl value="urn:uuid:f356978f-fdee-48c8-9842-7c239c71eda6"></fullUrl>
      <resource>
         <Encounter xmlns="http://hl7.org/fhir">
            <meta>
               <profile value="https://www.umontreal.ca/fhir/core/modul-fall/StructureDefinition/KontaktGesundheitseinrichtung"></profile>
            </meta>
            <identifier>
               <type>
                  <coding>
                     <system value="http://terminology.hl7.org/CodeSystem/v2-0203"></system>
                     <code value="VN"></code>
                  </coding>
               </type>
               <system value="http://www.umontreal.ca/encs"></system>
               <value value="23199774"></value>
            </identifier>
            <status value="finished"></status>
            <class>
               <system value="https://www.umontreal.ca/fhir/core/ValueSet/EncounterClassDE"></system>
               <code value="N"></code>
               <display value="Segment nicht anwendbar"></display>
            </class>
            <period>
               <start value="2150-09-15T00:00:00+00:00"></start>
               <end value="2150-09-15T00:00:00+00:00"></end>
            </period>
            <diagnosis>
               <condition>
                  <reference value="urn:uuid:6d6827d0-8cc7-478d-aacd-f9d19b167eb6"></reference>
               </condition>
               <rank value="6"></rank>
            </diagnosis>
            <diagnosis>
               <condition>
                  <reference value="urn:uuid:3a996158-3b2d-4af0-8e2f-58c20c2a2bf3"></reference>
               </condition>
               <rank value="5"></rank>
            </diagnosis>
            <diagnosis>
               <condition>
                  <reference value="urn:uuid:d8b69cf1-f18c-4eed-b6fa-316a63578b2e"></reference>
               </condition>
               <rank value="4"></rank>
            </diagnosis>
            <diagnosis>
               <condition>
                  <reference value="urn:uuid:b008fdd0-bbd6-4b2f-9f3f-ee33ef012eeb"></reference>
               </condition>
               <rank value="3"></rank>
            </diagnosis>
            <diagnosis>
               <condition>
                  <reference value="urn:uuid:df3c5023-f012-4cfb-abc7-4fc599623110"></reference>
               </condition>
               <rank value="2"></rank>
            </diagnosis>
            <diagnosis>
               <condition>
                  <reference value="urn:uuid:c391960c-9413-467a-8b7a-9d3580b623ff"></reference>
               </condition>
               <rank value="1"></rank>
            </diagnosis>
            <hospitalization>
               <dischargeDisposition>
                  <coding>
                     <system value="https://www.umontreal.ca/fhir/core/modul-fall/CodeSystem/Entlassungsgrund"></system>
                     <code value="039"></code>
                     <display value="Behandlung aus sonstigen Gruenden beendet, keine Angabe"></display>
                  </coding>
               </dischargeDisposition>
            </hospitalization>
         </Encounter>
      </resource>
      <request>
         <method value="POST"></method>
         <url value="Encounter"></url>
         <ifNoneExist value="identifier=http://www.umontreal.ca/encs|23199774"></ifNoneExist>
      </request>
   </entry>
</Bundle>