<Bundle xmlns="http://hl7.org/fhir">
   <type value="transaction"></type>
   <entry>
      <fullUrl value="urn:uuid:94b84b91-c084-437e-a437-83aac1f13d3b"></fullUrl>
      <resource>
         <Patient xmlns="http://hl7.org/fhir">
            <meta>
               <profile value="https://www.medizininformatik-initiative.de/fhir/core/modul-person/StructureDefinition/Patient"></profile>
            </meta>
            <text>
               <status value="generated"></status>
               <div xmlns="http://www.w3.org/1999/xhtml"> 
                  <div class="hapiHeaderText">10091724 
                     <b>PATIENT_10091724 </b> 
                  </div> 
                  <table class="hapiPropertyTable"> 
                     <tbody> 
                        <tr> 
                           <td>Identifier</td> 
                           <td>10091724</td> 
                        </tr> 
                        <tr> 
                           <td>Address</td> 
                           <td> 
                              <span>Musterstrasse 1 </span> 
                              <br></br> 
                              <span>Berlin </span> 
                              <span>DE </span> 
                           </td> 
                        </tr> 
                        <tr> 
                           <td>Date of birth</td> 
                           <td> 
                              <span>01 January 2057</span> 
                           </td> 
                        </tr> 
                     </tbody> 
                  </table> 
               </div>
            </text>
            <identifier>
               <use value="usual"></use>
               <type>
                  <coding>
                     <system value="http://terminology.hl7.org/CodeSystem/v2-0203"></system>
                     <code value="MR"></code>
                  </coding>
               </type>
               <system value="http://www.umontreal.ca/patients"></system>
               <value value="10091724"></value>
            </identifier>
            <name>
               <use value="official"></use>
               <family value="Patient_10091724">
                  <extension url="http://hl7.org/fhir/StructureDefinition/humanname-own-name">
                     <valueString value="Patient_10091724"></valueString>
                  </extension>
               </family>
               <given value="10091724"></given>
            </name>
            <gender value="male"></gender>
            <birthDate value="2057-01-01">
               <extension url="http://hl7.org/fhir/StructureDefinition/data-absent-reason">
                  <valueCode value="masked"></valueCode>
               </extension>
            </birthDate>
            <deceasedDateTime value="2136-07-16T00:00:00+00:00"></deceasedDateTime>
            <address>
               <type value="postal"></type>
               <line value="Musterstrasse 1">
                  <extension url="http://hl7.org/fhir/StructureDefinition/iso21090-ADXP-streetName">
                     <valueString value="Musterstrasse"></valueString>
                  </extension>
                  <extension url="http://hl7.org/fhir/StructureDefinition/iso21090-ADXP-houseNumber">
                     <valueString value="1"></valueString>
                  </extension>
               </line>
               <city value="Berlin"></city>
               <postalCode value="12043"></postalCode>
               <country value="DE"></country>
            </address>
            <maritalStatus>
               <coding>
                  <system value="http://hl7.org/fhir/ValueSet/marital-status"></system>
                  <code value="M"></code>
                  <display value="Married"></display>
               </coding>
            </maritalStatus>
         </Patient>
      </resource>
      <request>
         <method value="POST"></method>
         <url value="Patient"></url>
         <ifNoneExist value="identifier=http://www.umontreal.ca/patients|10091724"></ifNoneExist>
      </request>
   </entry>
   <entry>
      <fullUrl value="urn:uuid:2cd27265-a906-45af-ac9d-9a51f1ac6aae"></fullUrl>
      <resource>
         <Organization xmlns="http://hl7.org/fhir">
            <identifier>
               <system value="http://www.umontreal.ca"></system>
               <value value="hospital"></value>
            </identifier>
            <type>
               <coding>
                  <system value="http://hl7.org/fhir/organization-type"></system>
                  <code value="prov"></code>
                  <display value="Healthcare Provider"></display>
               </coding>
            </type>
            <name value="IMI-Mimic Hospital"></name>
         </Organization>
      </resource>
      <request>
         <method value="POST"></method>
         <url value="Organization"></url>
         <ifNoneExist value="identifier=http://www.umontreal.ca|hospital"></ifNoneExist>
      </request>
   </entry>
   <entry>
      <fullUrl value="urn:uuid:5a3be7cd-0446-4b58-ba46-2528d1010c6d"></fullUrl>
      <resource>
         <Condition xmlns="http://hl7.org/fhir">
            <meta>
               <profile value="https://www.medizininformatik-initiative.de/fhir/core/modul-diagnose/StructureDefinition/Diagnose"></profile>
            </meta>
            <identifier>
               <system value="http://www.imi-mimic.de/diags"></system>
               <value value="null_24"></value>
            </identifier>
            <subject>
               <reference value="10091724"></reference>
            </subject>
            <recordedDate>
               <extension url="http://hl7.org/fhir/StructureDefinition/data-absent-reason">
                  <valueCode value="unknown"></valueCode>
               </extension>
            </recordedDate>
         </Condition>
      </resource>
      <request>
         <method value="POST"></method>
         <url value="Condition"></url>
         <ifNoneExist value="identifier=http://www.imi-mimic.de/diags|null_24"></ifNoneExist>
      </request>
   </entry>
   <entry>
      <fullUrl value="urn:uuid:2ba2bdc7-11c8-4f90-9796-e73726621bf2"></fullUrl>
      <resource>
         <Condition xmlns="http://hl7.org/fhir">
            <meta>
               <profile value="https://www.medizininformatik-initiative.de/fhir/core/modul-diagnose/StructureDefinition/Diagnose"></profile>
            </meta>
            <identifier>
               <system value="http://www.imi-mimic.de/diags"></system>
               <value value="null_23"></value>
            </identifier>
            <subject>
               <reference value="10091724"></reference>
            </subject>
            <recordedDate>
               <extension url="http://hl7.org/fhir/StructureDefinition/data-absent-reason">
                  <valueCode value="unknown"></valueCode>
               </extension>
            </recordedDate>
         </Condition>
      </resource>
      <request>
         <method value="POST"></method>
         <url value="Condition"></url>
         <ifNoneExist value="identifier=http://www.imi-mimic.de/diags|null_23"></ifNoneExist>
      </request>
   </entry>
   <entry>
      <fullUrl value="urn:uuid:73ed26cd-8a75-4300-8e5c-38627f2f38af"></fullUrl>
      <resource>
         <Condition xmlns="http://hl7.org/fhir">
            <meta>
               <profile value="https://www.medizininformatik-initiative.de/fhir/core/modul-diagnose/StructureDefinition/Diagnose"></profile>
            </meta>
            <identifier>
               <system value="http://www.imi-mimic.de/diags"></system>
               <value value="null_22"></value>
            </identifier>
            <subject>
               <reference value="10091724"></reference>
            </subject>
            <recordedDate>
               <extension url="http://hl7.org/fhir/StructureDefinition/data-absent-reason">
                  <valueCode value="unknown"></valueCode>
               </extension>
            </recordedDate>
         </Condition>
      </resource>
      <request>
         <method value="POST"></method>
         <url value="Condition"></url>
         <ifNoneExist value="identifier=http://www.imi-mimic.de/diags|null_22"></ifNoneExist>
      </request>
   </entry>
   <entry>
      <fullUrl value="urn:uuid:70169ab4-f535-4ce8-9d1c-2be267b3b296"></fullUrl>
      <resource>
         <Condition xmlns="http://hl7.org/fhir">
            <meta>
               <profile value="https://www.medizininformatik-initiative.de/fhir/core/modul-diagnose/StructureDefinition/Diagnose"></profile>
            </meta>
            <identifier>
               <system value="http://www.imi-mimic.de/diags"></system>
               <value value="null_21"></value>
            </identifier>
            <subject>
               <reference value="10091724"></reference>
            </subject>
            <recordedDate>
               <extension url="http://hl7.org/fhir/StructureDefinition/data-absent-reason">
                  <valueCode value="unknown"></valueCode>
               </extension>
            </recordedDate>
         </Condition>
      </resource>
      <request>
         <method value="POST"></method>
         <url value="Condition"></url>
         <ifNoneExist value="identifier=http://www.imi-mimic.de/diags|null_21"></ifNoneExist>
      </request>
   </entry>
   <entry>
      <fullUrl value="urn:uuid:b092fcab-3f6b-49ed-a657-ca94e6755da4"></fullUrl>
      <resource>
         <Condition xmlns="http://hl7.org/fhir">
            <meta>
               <profile value="https://www.medizininformatik-initiative.de/fhir/core/modul-diagnose/StructureDefinition/Diagnose"></profile>
            </meta>
            <identifier>
               <system value="http://www.imi-mimic.de/diags"></system>
               <value value="null_20"></value>
            </identifier>
            <subject>
               <reference value="10091724"></reference>
            </subject>
            <recordedDate>
               <extension url="http://hl7.org/fhir/StructureDefinition/data-absent-reason">
                  <valueCode value="unknown"></valueCode>
               </extension>
            </recordedDate>
         </Condition>
      </resource>
      <request>
         <method value="POST"></method>
         <url value="Condition"></url>
         <ifNoneExist value="identifier=http://www.imi-mimic.de/diags|null_20"></ifNoneExist>
      </request>
   </entry>
   <entry>
      <fullUrl value="urn:uuid:bb09ecd3-7710-4284-bf44-2eab37ef176d"></fullUrl>
      <resource>
         <Condition xmlns="http://hl7.org/fhir">
            <meta>
               <profile value="https://www.medizininformatik-initiative.de/fhir/core/modul-diagnose/StructureDefinition/Diagnose"></profile>
            </meta>
            <identifier>
               <system value="http://www.imi-mimic.de/diags"></system>
               <value value="null_19"></value>
            </identifier>
            <subject>
               <reference value="10091724"></reference>
            </subject>
            <recordedDate>
               <extension url="http://hl7.org/fhir/StructureDefinition/data-absent-reason">
                  <valueCode value="unknown"></valueCode>
               </extension>
            </recordedDate>
         </Condition>
      </resource>
      <request>
         <method value="POST"></method>
         <url value="Condition"></url>
         <ifNoneExist value="identifier=http://www.imi-mimic.de/diags|null_19"></ifNoneExist>
      </request>
   </entry>
   <entry>
      <fullUrl value="urn:uuid:e590e854-5dad-4855-b76c-81de85b4648d"></fullUrl>
      <resource>
         <Condition xmlns="http://hl7.org/fhir">
            <meta>
               <profile value="https://www.medizininformatik-initiative.de/fhir/core/modul-diagnose/StructureDefinition/Diagnose"></profile>
            </meta>
            <identifier>
               <system value="http://www.imi-mimic.de/diags"></system>
               <value value="null_18"></value>
            </identifier>
            <subject>
               <reference value="10091724"></reference>
            </subject>
            <recordedDate>
               <extension url="http://hl7.org/fhir/StructureDefinition/data-absent-reason">
                  <valueCode value="unknown"></valueCode>
               </extension>
            </recordedDate>
         </Condition>
      </resource>
      <request>
         <method value="POST"></method>
         <url value="Condition"></url>
         <ifNoneExist value="identifier=http://www.imi-mimic.de/diags|null_18"></ifNoneExist>
      </request>
   </entry>
   <entry>
      <fullUrl value="urn:uuid:b25c3552-6937-49b9-aaac-716437c8c31f"></fullUrl>
      <resource>
         <Condition xmlns="http://hl7.org/fhir">
            <meta>
               <profile value="https://www.medizininformatik-initiative.de/fhir/core/modul-diagnose/StructureDefinition/Diagnose"></profile>
            </meta>
            <identifier>
               <system value="http://www.imi-mimic.de/diags"></system>
               <value value="null_17"></value>
            </identifier>
            <subject>
               <reference value="10091724"></reference>
            </subject>
            <recordedDate>
               <extension url="http://hl7.org/fhir/StructureDefinition/data-absent-reason">
                  <valueCode value="unknown"></valueCode>
               </extension>
            </recordedDate>
         </Condition>
      </resource>
      <request>
         <method value="POST"></method>
         <url value="Condition"></url>
         <ifNoneExist value="identifier=http://www.imi-mimic.de/diags|null_17"></ifNoneExist>
      </request>
   </entry>
   <entry>
      <fullUrl value="urn:uuid:30ee7aa2-e600-4c5e-8248-5f6b30726727"></fullUrl>
      <resource>
         <Condition xmlns="http://hl7.org/fhir">
            <meta>
               <profile value="https://www.medizininformatik-initiative.de/fhir/core/modul-diagnose/StructureDefinition/Diagnose"></profile>
            </meta>
            <identifier>
               <system value="http://www.imi-mimic.de/diags"></system>
               <value value="null_16"></value>
            </identifier>
            <subject>
               <reference value="10091724"></reference>
            </subject>
            <recordedDate>
               <extension url="http://hl7.org/fhir/StructureDefinition/data-absent-reason">
                  <valueCode value="unknown"></valueCode>
               </extension>
            </recordedDate>
         </Condition>
      </resource>
      <request>
         <method value="POST"></method>
         <url value="Condition"></url>
         <ifNoneExist value="identifier=http://www.imi-mimic.de/diags|null_16"></ifNoneExist>
      </request>
   </entry>
   <entry>
      <fullUrl value="urn:uuid:9dc2c11d-009c-4160-9be5-1644387bf398"></fullUrl>
      <resource>
         <Condition xmlns="http://hl7.org/fhir">
            <meta>
               <profile value="https://www.medizininformatik-initiative.de/fhir/core/modul-diagnose/StructureDefinition/Diagnose"></profile>
            </meta>
            <identifier>
               <system value="http://www.imi-mimic.de/diags"></system>
               <value value="null_15"></value>
            </identifier>
            <subject>
               <reference value="10091724"></reference>
            </subject>
            <recordedDate>
               <extension url="http://hl7.org/fhir/StructureDefinition/data-absent-reason">
                  <valueCode value="unknown"></valueCode>
               </extension>
            </recordedDate>
         </Condition>
      </resource>
      <request>
         <method value="POST"></method>
         <url value="Condition"></url>
         <ifNoneExist value="identifier=http://www.imi-mimic.de/diags|null_15"></ifNoneExist>
      </request>
   </entry>
   <entry>
      <fullUrl value="urn:uuid:197e31bd-f76d-45cc-a128-1947c5d33b10"></fullUrl>
      <resource>
         <Condition xmlns="http://hl7.org/fhir">
            <meta>
               <profile value="https://www.medizininformatik-initiative.de/fhir/core/modul-diagnose/StructureDefinition/Diagnose"></profile>
            </meta>
            <identifier>
               <system value="http://www.imi-mimic.de/diags"></system>
               <value value="null_14"></value>
            </identifier>
            <subject>
               <reference value="10091724"></reference>
            </subject>
            <recordedDate>
               <extension url="http://hl7.org/fhir/StructureDefinition/data-absent-reason">
                  <valueCode value="unknown"></valueCode>
               </extension>
            </recordedDate>
         </Condition>
      </resource>
      <request>
         <method value="POST"></method>
         <url value="Condition"></url>
         <ifNoneExist value="identifier=http://www.imi-mimic.de/diags|null_14"></ifNoneExist>
      </request>
   </entry>
   <entry>
      <fullUrl value="urn:uuid:900dc357-7610-47f6-bc9c-f52615146ee6"></fullUrl>
      <resource>
         <Condition xmlns="http://hl7.org/fhir">
            <meta>
               <profile value="https://www.medizininformatik-initiative.de/fhir/core/modul-diagnose/StructureDefinition/Diagnose"></profile>
            </meta>
            <identifier>
               <system value="http://www.imi-mimic.de/diags"></system>
               <value value="null_13"></value>
            </identifier>
            <subject>
               <reference value="10091724"></reference>
            </subject>
            <recordedDate>
               <extension url="http://hl7.org/fhir/StructureDefinition/data-absent-reason">
                  <valueCode value="unknown"></valueCode>
               </extension>
            </recordedDate>
         </Condition>
      </resource>
      <request>
         <method value="POST"></method>
         <url value="Condition"></url>
         <ifNoneExist value="identifier=http://www.imi-mimic.de/diags|null_13"></ifNoneExist>
      </request>
   </entry>
   <entry>
      <fullUrl value="urn:uuid:02b286f6-b507-47d8-a942-979bc5e8b7e3"></fullUrl>
      <resource>
         <Condition xmlns="http://hl7.org/fhir">
            <meta>
               <profile value="https://www.medizininformatik-initiative.de/fhir/core/modul-diagnose/StructureDefinition/Diagnose"></profile>
            </meta>
            <identifier>
               <system value="http://www.imi-mimic.de/diags"></system>
               <value value="null_12"></value>
            </identifier>
            <subject>
               <reference value="10091724"></reference>
            </subject>
            <recordedDate>
               <extension url="http://hl7.org/fhir/StructureDefinition/data-absent-reason">
                  <valueCode value="unknown"></valueCode>
               </extension>
            </recordedDate>
         </Condition>
      </resource>
      <request>
         <method value="POST"></method>
         <url value="Condition"></url>
         <ifNoneExist value="identifier=http://www.imi-mimic.de/diags|null_12"></ifNoneExist>
      </request>
   </entry>
   <entry>
      <fullUrl value="urn:uuid:75a5551b-1e11-4bdd-abf0-11567d891007"></fullUrl>
      <resource>
         <Condition xmlns="http://hl7.org/fhir">
            <meta>
               <profile value="https://www.medizininformatik-initiative.de/fhir/core/modul-diagnose/StructureDefinition/Diagnose"></profile>
            </meta>
            <identifier>
               <system value="http://www.imi-mimic.de/diags"></system>
               <value value="null_11"></value>
            </identifier>
            <subject>
               <reference value="10091724"></reference>
            </subject>
            <recordedDate>
               <extension url="http://hl7.org/fhir/StructureDefinition/data-absent-reason">
                  <valueCode value="unknown"></valueCode>
               </extension>
            </recordedDate>
         </Condition>
      </resource>
      <request>
         <method value="POST"></method>
         <url value="Condition"></url>
         <ifNoneExist value="identifier=http://www.imi-mimic.de/diags|null_11"></ifNoneExist>
      </request>
   </entry>
   <entry>
      <fullUrl value="urn:uuid:1e301438-f500-492d-b328-58273949bde0"></fullUrl>
      <resource>
         <Condition xmlns="http://hl7.org/fhir">
            <meta>
               <profile value="https://www.medizininformatik-initiative.de/fhir/core/modul-diagnose/StructureDefinition/Diagnose"></profile>
            </meta>
            <identifier>
               <system value="http://www.imi-mimic.de/diags"></system>
               <value value="null_10"></value>
            </identifier>
            <subject>
               <reference value="10091724"></reference>
            </subject>
            <recordedDate>
               <extension url="http://hl7.org/fhir/StructureDefinition/data-absent-reason">
                  <valueCode value="unknown"></valueCode>
               </extension>
            </recordedDate>
         </Condition>
      </resource>
      <request>
         <method value="POST"></method>
         <url value="Condition"></url>
         <ifNoneExist value="identifier=http://www.imi-mimic.de/diags|null_10"></ifNoneExist>
      </request>
   </entry>
   <entry>
      <fullUrl value="urn:uuid:18479f5a-e5cc-4a08-83b5-fb25baaa2032"></fullUrl>
      <resource>
         <Condition xmlns="http://hl7.org/fhir">
            <meta>
               <profile value="https://www.medizininformatik-initiative.de/fhir/core/modul-diagnose/StructureDefinition/Diagnose"></profile>
            </meta>
            <identifier>
               <system value="http://www.imi-mimic.de/diags"></system>
               <value value="null_9"></value>
            </identifier>
            <subject>
               <reference value="10091724"></reference>
            </subject>
            <recordedDate>
               <extension url="http://hl7.org/fhir/StructureDefinition/data-absent-reason">
                  <valueCode value="unknown"></valueCode>
               </extension>
            </recordedDate>
         </Condition>
      </resource>
      <request>
         <method value="POST"></method>
         <url value="Condition"></url>
         <ifNoneExist value="identifier=http://www.imi-mimic.de/diags|null_9"></ifNoneExist>
      </request>
   </entry>
   <entry>
      <fullUrl value="urn:uuid:a160961a-1423-474e-8d48-35bc65687fb0"></fullUrl>
      <resource>
         <Condition xmlns="http://hl7.org/fhir">
            <meta>
               <profile value="https://www.medizininformatik-initiative.de/fhir/core/modul-diagnose/StructureDefinition/Diagnose"></profile>
            </meta>
            <identifier>
               <system value="http://www.imi-mimic.de/diags"></system>
               <value value="null_8"></value>
            </identifier>
            <subject>
               <reference value="10091724"></reference>
            </subject>
            <recordedDate>
               <extension url="http://hl7.org/fhir/StructureDefinition/data-absent-reason">
                  <valueCode value="unknown"></valueCode>
               </extension>
            </recordedDate>
         </Condition>
      </resource>
      <request>
         <method value="POST"></method>
         <url value="Condition"></url>
         <ifNoneExist value="identifier=http://www.imi-mimic.de/diags|null_8"></ifNoneExist>
      </request>
   </entry>
   <entry>
      <fullUrl value="urn:uuid:115185f6-7e32-4a95-9983-69631b927f33"></fullUrl>
      <resource>
         <Condition xmlns="http://hl7.org/fhir">
            <meta>
               <profile value="https://www.medizininformatik-initiative.de/fhir/core/modul-diagnose/StructureDefinition/Diagnose"></profile>
            </meta>
            <identifier>
               <system value="http://www.imi-mimic.de/diags"></system>
               <value value="null_7"></value>
            </identifier>
            <subject>
               <reference value="10091724"></reference>
            </subject>
            <recordedDate>
               <extension url="http://hl7.org/fhir/StructureDefinition/data-absent-reason">
                  <valueCode value="unknown"></valueCode>
               </extension>
            </recordedDate>
         </Condition>
      </resource>
      <request>
         <method value="POST"></method>
         <url value="Condition"></url>
         <ifNoneExist value="identifier=http://www.imi-mimic.de/diags|null_7"></ifNoneExist>
      </request>
   </entry>
   <entry>
      <fullUrl value="urn:uuid:ddffc21c-d3f5-40fd-b849-faf59df0b028"></fullUrl>
      <resource>
         <Condition xmlns="http://hl7.org/fhir">
            <meta>
               <profile value="https://www.medizininformatik-initiative.de/fhir/core/modul-diagnose/StructureDefinition/Diagnose"></profile>
            </meta>
            <identifier>
               <system value="http://www.imi-mimic.de/diags"></system>
               <value value="null_6"></value>
            </identifier>
            <subject>
               <reference value="10091724"></reference>
            </subject>
            <recordedDate>
               <extension url="http://hl7.org/fhir/StructureDefinition/data-absent-reason">
                  <valueCode value="unknown"></valueCode>
               </extension>
            </recordedDate>
         </Condition>
      </resource>
      <request>
         <method value="POST"></method>
         <url value="Condition"></url>
         <ifNoneExist value="identifier=http://www.imi-mimic.de/diags|null_6"></ifNoneExist>
      </request>
   </entry>
   <entry>
      <fullUrl value="urn:uuid:12acd42f-40d8-446d-88c5-56aa7641fe87"></fullUrl>
      <resource>
         <Condition xmlns="http://hl7.org/fhir">
            <meta>
               <profile value="https://www.medizininformatik-initiative.de/fhir/core/modul-diagnose/StructureDefinition/Diagnose"></profile>
            </meta>
            <identifier>
               <system value="http://www.imi-mimic.de/diags"></system>
               <value value="null_5"></value>
            </identifier>
            <subject>
               <reference value="10091724"></reference>
            </subject>
            <recordedDate>
               <extension url="http://hl7.org/fhir/StructureDefinition/data-absent-reason">
                  <valueCode value="unknown"></valueCode>
               </extension>
            </recordedDate>
         </Condition>
      </resource>
      <request>
         <method value="POST"></method>
         <url value="Condition"></url>
         <ifNoneExist value="identifier=http://www.imi-mimic.de/diags|null_5"></ifNoneExist>
      </request>
   </entry>
   <entry>
      <fullUrl value="urn:uuid:d3967bf8-d59c-46c0-9f7d-800652d52093"></fullUrl>
      <resource>
         <Condition xmlns="http://hl7.org/fhir">
            <meta>
               <profile value="https://www.medizininformatik-initiative.de/fhir/core/modul-diagnose/StructureDefinition/Diagnose"></profile>
            </meta>
            <identifier>
               <system value="http://www.imi-mimic.de/diags"></system>
               <value value="null_4"></value>
            </identifier>
            <subject>
               <reference value="10091724"></reference>
            </subject>
            <recordedDate>
               <extension url="http://hl7.org/fhir/StructureDefinition/data-absent-reason">
                  <valueCode value="unknown"></valueCode>
               </extension>
            </recordedDate>
         </Condition>
      </resource>
      <request>
         <method value="POST"></method>
         <url value="Condition"></url>
         <ifNoneExist value="identifier=http://www.imi-mimic.de/diags|null_4"></ifNoneExist>
      </request>
   </entry>
   <entry>
      <fullUrl value="urn:uuid:80a27d5d-eb61-4be1-a6cf-8ada5b511daf"></fullUrl>
      <resource>
         <Condition xmlns="http://hl7.org/fhir">
            <meta>
               <profile value="https://www.medizininformatik-initiative.de/fhir/core/modul-diagnose/StructureDefinition/Diagnose"></profile>
            </meta>
            <identifier>
               <system value="http://www.imi-mimic.de/diags"></system>
               <value value="null_3"></value>
            </identifier>
            <subject>
               <reference value="10091724"></reference>
            </subject>
            <recordedDate>
               <extension url="http://hl7.org/fhir/StructureDefinition/data-absent-reason">
                  <valueCode value="unknown"></valueCode>
               </extension>
            </recordedDate>
         </Condition>
      </resource>
      <request>
         <method value="POST"></method>
         <url value="Condition"></url>
         <ifNoneExist value="identifier=http://www.imi-mimic.de/diags|null_3"></ifNoneExist>
      </request>
   </entry>
   <entry>
      <fullUrl value="urn:uuid:87f3f2d6-6fe0-4555-867b-a313e30cd8f4"></fullUrl>
      <resource>
         <Condition xmlns="http://hl7.org/fhir">
            <meta>
               <profile value="https://www.medizininformatik-initiative.de/fhir/core/modul-diagnose/StructureDefinition/Diagnose"></profile>
            </meta>
            <identifier>
               <system value="http://www.imi-mimic.de/diags"></system>
               <value value="null_2"></value>
            </identifier>
            <subject>
               <reference value="10091724"></reference>
            </subject>
            <recordedDate>
               <extension url="http://hl7.org/fhir/StructureDefinition/data-absent-reason">
                  <valueCode value="unknown"></valueCode>
               </extension>
            </recordedDate>
         </Condition>
      </resource>
      <request>
         <method value="POST"></method>
         <url value="Condition"></url>
         <ifNoneExist value="identifier=http://www.imi-mimic.de/diags|null_2"></ifNoneExist>
      </request>
   </entry>
   <entry>
      <fullUrl value="urn:uuid:add74dc7-c34f-4750-9c54-87ceccf6d005"></fullUrl>
      <resource>
         <Condition xmlns="http://hl7.org/fhir">
            <meta>
               <profile value="https://www.medizininformatik-initiative.de/fhir/core/modul-diagnose/StructureDefinition/Diagnose"></profile>
            </meta>
            <identifier>
               <system value="http://www.imi-mimic.de/diags"></system>
               <value value="null_1"></value>
            </identifier>
            <subject>
               <reference value="10091724"></reference>
            </subject>
            <recordedDate>
               <extension url="http://hl7.org/fhir/StructureDefinition/data-absent-reason">
                  <valueCode value="unknown"></valueCode>
               </extension>
            </recordedDate>
         </Condition>
      </resource>
      <request>
         <method value="POST"></method>
         <url value="Condition"></url>
         <ifNoneExist value="identifier=http://www.imi-mimic.de/diags|null_1"></ifNoneExist>
      </request>
   </entry>
   <entry>
      <fullUrl value="urn:uuid:35a938bb-c327-4c84-a8e4-261ed0b0c39c"></fullUrl>
      <resource>
         <Location xmlns="http://hl7.org/fhir">
            <identifier>
               <system value="http://www.imi-mimic.de/location/Medicine/Cardiology_Intermediate"></system>
               <value value="Medicine/Cardiology Intermediate"></value>
            </identifier>
            <name value="Medicine/Cardiology Intermediate"></name>
            <type>
               <coding>
                  <system value="http://terminology.hl7.org/ValueSet/v3-ServiceDeliveryLocationRoleType"></system>
                  <code value="_ServiceDeliveryLocationRoleType"></code>
                  <display value="ServiceDeliveryLocationRoleType"></display>
               </coding>
            </type>
            <physicalType>
               <coding>
                  <system value="http://terminology.hl7.org/CodeSystem/location-physical-type"></system>
                  <code value="wa"></code>
                  <display value="Ward"></display>
               </coding>
            </physicalType>
            <managingOrganization>
               <reference value="urn:uuid:0b0b9cb9-1b70-4233-a1ab-e68022ef311c"></reference>
            </managingOrganization>
         </Location>
      </resource>
      <request>
         <method value="POST"></method>
         <url value="Location"></url>
         <ifNoneExist value="identifier=http://www.imi-mimic.de/location/Medicine/Cardiology_Intermediate|Medicine/Cardiology Intermediate"></ifNoneExist>
      </request>
   </entry>
   <entry>
      <fullUrl value="urn:uuid:ec537c1b-e300-4ca2-a0b9-21bc61cb6b1d"></fullUrl>
      <resource>
         <Encounter xmlns="http://hl7.org/fhir">
            <status value="finished"></status>
            <class>
               <system value="https://www.medizininformatik-initiative.de/fhir/core/CodeSystem/EncounterClassAdditionsDE"></system>
               <code value="_ActEncounterCode"></code>
               <display value="ActEncounterCode"></display>
            </class>
            <period>
               <start value="2135-10-23T00:00:00+00:00"></start>
               <end value="2135-10-25T00:00:00+00:00"></end>
            </period>
            <location>
               <location>
                  <reference value="urn:uuid:35a938bb-c327-4c84-a8e4-261ed0b0c39c"></reference>
               </location>
               <status value="completed"></status>
               <physicalType>
                  <coding>
                     <system value="http://terminology.hl7.org/CodeSystem/location-physical-type"></system>
                     <code value="wa"></code>
                     <display value="Ward"></display>
                  </coding>
               </physicalType>
               <period>
                  <start value="2135-10-23T00:00:00+00:00"></start>
                  <end value="2135-10-25T00:00:00+00:00"></end>
               </period>
            </location>
            <serviceProvider>
               <reference value="urn:uuid:0b0b9cb9-1b70-4233-a1ab-e68022ef311c"></reference>
            </serviceProvider>
            <partOf>
               <reference value="urn:uuid:54ef2205-030c-4dd5-ac0c-4866aebe243b"></reference>
            </partOf>
         </Encounter>
      </resource>
      <request>
         <method value="POST"></method>
         <url value="Encounter"></url>
         <ifNoneExist value="identifier=null|null"></ifNoneExist>
      </request>
   </entry>
   <entry>
      <fullUrl value="urn:uuid:02cc4162-33a3-4ed3-848f-0ebb7ab06076"></fullUrl>
      <resource>
         <Location xmlns="http://hl7.org/fhir">
            <identifier>
               <system value="http://www.imi-mimic.de/location/Emergency_Department"></system>
               <value value="Emergency Department"></value>
            </identifier>
            <name value="Emergency Department"></name>
            <type>
               <coding>
                  <system value="http://terminology.hl7.org/ValueSet/v3-ServiceDeliveryLocationRoleType"></system>
                  <code value="_ServiceDeliveryLocationRoleType"></code>
                  <display value="ServiceDeliveryLocationRoleType"></display>
               </coding>
            </type>
            <physicalType>
               <coding>
                  <system value="http://terminology.hl7.org/CodeSystem/location-physical-type"></system>
                  <code value="wa"></code>
                  <display value="Ward"></display>
               </coding>
            </physicalType>
            <managingOrganization>
               <reference value="urn:uuid:3e5cb101-0673-4bb5-85dd-9e4192001f7c"></reference>
            </managingOrganization>
         </Location>
      </resource>
      <request>
         <method value="POST"></method>
         <url value="Location"></url>
         <ifNoneExist value="identifier=http://www.imi-mimic.de/location/Emergency_Department|Emergency Department"></ifNoneExist>
      </request>
   </entry>
   <entry>
      <fullUrl value="urn:uuid:ff99da82-382e-4862-a616-b11445ae229c"></fullUrl>
      <resource>
         <Encounter xmlns="http://hl7.org/fhir">
            <status value="finished"></status>
            <class>
               <system value="https://www.medizininformatik-initiative.de/fhir/core/CodeSystem/EncounterClassAdditionsDE"></system>
               <code value="_ActEncounterCode"></code>
               <display value="ActEncounterCode"></display>
            </class>
            <period>
               <start value="2135-10-23T00:00:00+00:00"></start>
               <end value="2135-10-23T00:00:00+00:00"></end>
            </period>
            <location>
               <location>
                  <reference value="urn:uuid:02cc4162-33a3-4ed3-848f-0ebb7ab06076"></reference>
               </location>
               <status value="completed"></status>
               <physicalType>
                  <coding>
                     <system value="http://terminology.hl7.org/CodeSystem/location-physical-type"></system>
                     <code value="wa"></code>
                     <display value="Ward"></display>
                  </coding>
               </physicalType>
               <period>
                  <start value="2135-10-23T00:00:00+00:00"></start>
                  <end value="2135-10-23T00:00:00+00:00"></end>
               </period>
            </location>
            <serviceProvider>
               <reference value="urn:uuid:3e5cb101-0673-4bb5-85dd-9e4192001f7c"></reference>
            </serviceProvider>
            <partOf>
               <reference value="urn:uuid:54ef2205-030c-4dd5-ac0c-4866aebe243b"></reference>
            </partOf>
         </Encounter>
      </resource>
      <request>
         <method value="POST"></method>
         <url value="Encounter"></url>
         <ifNoneExist value="identifier=null|null"></ifNoneExist>
      </request>
   </entry>
   <entry>
      <fullUrl value="urn:uuid:4338d3a9-d48a-46dd-bfd8-6fd8722080b0"></fullUrl>
      <resource>
         <Location xmlns="http://hl7.org/fhir">
            <identifier>
               <system value="http://www.imi-mimic.de/location/Unknown"></system>
               <value value="Unknown"></value>
            </identifier>
            <name value="Unknown"></name>
            <type>
               <coding>
                  <system value="http://terminology.hl7.org/ValueSet/v3-ServiceDeliveryLocationRoleType"></system>
                  <code value="_ServiceDeliveryLocationRoleType"></code>
                  <display value="ServiceDeliveryLocationRoleType"></display>
               </coding>
            </type>
            <physicalType>
               <coding>
                  <system value="http://terminology.hl7.org/CodeSystem/location-physical-type"></system>
                  <code value="wa"></code>
                  <display value="Ward"></display>
               </coding>
            </physicalType>
            <managingOrganization>
               <reference value="urn:uuid:36ad2032-0307-431e-be03-410e49e859e4"></reference>
            </managingOrganization>
         </Location>
      </resource>
      <request>
         <method value="POST"></method>
         <url value="Location"></url>
         <ifNoneExist value="identifier=http://www.imi-mimic.de/location/Unknown|Unknown"></ifNoneExist>
      </request>
   </entry>
   <entry>
      <fullUrl value="urn:uuid:aedc6aa7-cc51-4ddd-ade9-a099230cdae8"></fullUrl>
      <resource>
         <Encounter xmlns="http://hl7.org/fhir">
            <status value="finished"></status>
            <class>
               <system value="https://www.medizininformatik-initiative.de/fhir/core/CodeSystem/EncounterClassAdditionsDE"></system>
               <code value="_ActEncounterCode"></code>
               <display value="ActEncounterCode"></display>
            </class>
            <period>
               <start value="2135-10-25T00:00:00+00:00"></start>
            </period>
            <location>
               <location>
                  <reference value="urn:uuid:4338d3a9-d48a-46dd-bfd8-6fd8722080b0"></reference>
               </location>
               <status value="completed"></status>
               <physicalType>
                  <coding>
                     <system value="http://terminology.hl7.org/CodeSystem/location-physical-type"></system>
                     <code value="wa"></code>
                     <display value="Ward"></display>
                  </coding>
               </physicalType>
               <period>
                  <start value="2135-10-25T00:00:00+00:00"></start>
               </period>
            </location>
            <serviceProvider>
               <reference value="urn:uuid:36ad2032-0307-431e-be03-410e49e859e4"></reference>
            </serviceProvider>
            <partOf>
               <reference value="urn:uuid:54ef2205-030c-4dd5-ac0c-4866aebe243b"></reference>
            </partOf>
         </Encounter>
      </resource>
      <request>
         <method value="POST"></method>
         <url value="Encounter"></url>
         <ifNoneExist value="identifier=null|null"></ifNoneExist>
      </request>
   </entry>
   <entry>
      <fullUrl value="urn:uuid:54ef2205-030c-4dd5-ac0c-4866aebe243b"></fullUrl>
      <resource>
         <Encounter xmlns="http://hl7.org/fhir">
            <meta>
               <profile value="https://www.umontreal.ca/fhir/core/modul-fall/StructureDefinition/KontaktGesundheitseinrichtung"></profile>
            </meta>
            <identifier>
               <type>
                  <coding>
                     <system value="http://terminology.hl7.org/CodeSystem/v2-0203"></system>
                     <code value="VN"></code>
                  </coding>
               </type>
               <system value="http://www.umontreal.ca/encs"></system>
               <value value="21834046"></value>
            </identifier>
            <status value="finished"></status>
            <class>
               <system value="https://www.umontreal.ca/fhir/core/ValueSet/EncounterClassDE"></system>
               <code value="normalstationaer"></code>
               <display value="Normalstationaer"></display>
            </class>
            <period>
               <start value="2135-10-23T00:00:00+00:00"></start>
               <end value="2135-10-25T00:00:00+00:00"></end>
            </period>
            <diagnosis>
               <condition>
                  <reference value="urn:uuid:5a3be7cd-0446-4b58-ba46-2528d1010c6d"></reference>
               </condition>
               <rank value="24"></rank>
            </diagnosis>
            <diagnosis>
               <condition>
                  <reference value="urn:uuid:2ba2bdc7-11c8-4f90-9796-e73726621bf2"></reference>
               </condition>
               <rank value="23"></rank>
            </diagnosis>
            <diagnosis>
               <condition>
                  <reference value="urn:uuid:73ed26cd-8a75-4300-8e5c-38627f2f38af"></reference>
               </condition>
               <rank value="22"></rank>
            </diagnosis>
            <diagnosis>
               <condition>
                  <reference value="urn:uuid:70169ab4-f535-4ce8-9d1c-2be267b3b296"></reference>
               </condition>
               <rank value="21"></rank>
            </diagnosis>
            <diagnosis>
               <condition>
                  <reference value="urn:uuid:b092fcab-3f6b-49ed-a657-ca94e6755da4"></reference>
               </condition>
               <rank value="20"></rank>
            </diagnosis>
            <diagnosis>
               <condition>
                  <reference value="urn:uuid:bb09ecd3-7710-4284-bf44-2eab37ef176d"></reference>
               </condition>
               <rank value="19"></rank>
            </diagnosis>
            <diagnosis>
               <condition>
                  <reference value="urn:uuid:e590e854-5dad-4855-b76c-81de85b4648d"></reference>
               </condition>
               <rank value="18"></rank>
            </diagnosis>
            <diagnosis>
               <condition>
                  <reference value="urn:uuid:b25c3552-6937-49b9-aaac-716437c8c31f"></reference>
               </condition>
               <rank value="17"></rank>
            </diagnosis>
            <diagnosis>
               <condition>
                  <reference value="urn:uuid:30ee7aa2-e600-4c5e-8248-5f6b30726727"></reference>
               </condition>
               <rank value="16"></rank>
            </diagnosis>
            <diagnosis>
               <condition>
                  <reference value="urn:uuid:9dc2c11d-009c-4160-9be5-1644387bf398"></reference>
               </condition>
               <rank value="15"></rank>
            </diagnosis>
            <diagnosis>
               <condition>
                  <reference value="urn:uuid:197e31bd-f76d-45cc-a128-1947c5d33b10"></reference>
               </condition>
               <rank value="14"></rank>
            </diagnosis>
            <diagnosis>
               <condition>
                  <reference value="urn:uuid:900dc357-7610-47f6-bc9c-f52615146ee6"></reference>
               </condition>
               <rank value="13"></rank>
            </diagnosis>
            <diagnosis>
               <condition>
                  <reference value="urn:uuid:02b286f6-b507-47d8-a942-979bc5e8b7e3"></reference>
               </condition>
               <rank value="12"></rank>
            </diagnosis>
            <diagnosis>
               <condition>
                  <reference value="urn:uuid:75a5551b-1e11-4bdd-abf0-11567d891007"></reference>
               </condition>
               <rank value="11"></rank>
            </diagnosis>
            <diagnosis>
               <condition>
                  <reference value="urn:uuid:1e301438-f500-492d-b328-58273949bde0"></reference>
               </condition>
               <rank value="10"></rank>
            </diagnosis>
            <diagnosis>
               <condition>
                  <reference value="urn:uuid:18479f5a-e5cc-4a08-83b5-fb25baaa2032"></reference>
               </condition>
               <rank value="9"></rank>
            </diagnosis>
            <diagnosis>
               <condition>
                  <reference value="urn:uuid:a160961a-1423-474e-8d48-35bc65687fb0"></reference>
               </condition>
               <rank value="8"></rank>
            </diagnosis>
            <diagnosis>
               <condition>
                  <reference value="urn:uuid:115185f6-7e32-4a95-9983-69631b927f33"></reference>
               </condition>
               <rank value="7"></rank>
            </diagnosis>
            <diagnosis>
               <condition>
                  <reference value="urn:uuid:ddffc21c-d3f5-40fd-b849-faf59df0b028"></reference>
               </condition>
               <rank value="6"></rank>
            </diagnosis>
            <diagnosis>
               <condition>
                  <reference value="urn:uuid:12acd42f-40d8-446d-88c5-56aa7641fe87"></reference>
               </condition>
               <rank value="5"></rank>
            </diagnosis>
            <diagnosis>
               <condition>
                  <reference value="urn:uuid:d3967bf8-d59c-46c0-9f7d-800652d52093"></reference>
               </condition>
               <rank value="4"></rank>
            </diagnosis>
            <diagnosis>
               <condition>
                  <reference value="urn:uuid:80a27d5d-eb61-4be1-a6cf-8ada5b511daf"></reference>
               </condition>
               <rank value="3"></rank>
            </diagnosis>
            <diagnosis>
               <condition>
                  <reference value="urn:uuid:87f3f2d6-6fe0-4555-867b-a313e30cd8f4"></reference>
               </condition>
               <rank value="2"></rank>
            </diagnosis>
            <diagnosis>
               <condition>
                  <reference value="urn:uuid:add74dc7-c34f-4750-9c54-87ceccf6d005"></reference>
               </condition>
               <rank value="1"></rank>
            </diagnosis>
            <hospitalization>
               <dischargeDisposition>
                  <coding>
                     <system value="https://www.umontreal.ca/fhir/core/modul-fall/CodeSystem/Entlassungsgrund"></system>
                     <code value="039"></code>
                     <display value="Behandlung aus sonstigen Gruenden beendet, keine Angabe"></display>
                  </coding>
               </dischargeDisposition>
            </hospitalization>
         </Encounter>
      </resource>
      <request>
         <method value="POST"></method>
         <url value="Encounter"></url>
         <ifNoneExist value="identifier=http://www.umontreal.ca/encs|21834046"></ifNoneExist>
      </request>
   </entry>
   <entry>
      <fullUrl value="urn:uuid:515d93ed-ff81-4bbc-bbfa-44e4fe733706"></fullUrl>
      <resource>
         <Medication xmlns="http://hl7.org/fhir">
            <text>
               <status value="generated"></status>
            </text>
         </Medication>
      </resource>
      <request>
         <method value="POST"></method>
         <url value="Medication"></url>
         <ifNoneExist value="code=null"></ifNoneExist>
      </request>
   </entry>
   <entry>
      <resource>
         <MedicationAdministration xmlns="http://hl7.org/fhir">
            <meta>
               <profile value="https://www.medizininformatik-initiative.de/fhir/core/modul-medikation/StructureDefinition/MedicationAdministration"></profile>
            </meta>
            <identifier>
               <system value="http://umontreal.ca/prescriptions"></system>
               <value value="21834046_0"></value>
            </identifier>
            <status value="completed"></status>
            <medicationReference>
               <reference value="urn:uuid:515d93ed-ff81-4bbc-bbfa-44e4fe733706"></reference>
            </medicationReference>
            <subject>
               <reference value="10091724"></reference>
            </subject>
            <context>
               <reference value="21834046"></reference>
            </context>
            <effectivePeriod>
               <start value="2135-10-23T00:00:00+00:00"></start>
               <end value="2135-10-25T00:00:00+00:00"></end>
            </effectivePeriod>
         </MedicationAdministration>
      </resource>
      <request>
         <method value="POST"></method>
         <url value="MedicationAdministration"></url>
      </request>
   </entry>
   <entry>
      <resource>
         <MedicationAdministration xmlns="http://hl7.org/fhir">
            <meta>
               <profile value="https://www.medizininformatik-initiative.de/fhir/core/modul-medikation/StructureDefinition/MedicationAdministration"></profile>
            </meta>
            <identifier>
               <system value="http://umontreal.ca/prescriptions"></system>
               <value value="21834046_1"></value>
            </identifier>
            <status value="completed"></status>
            <medicationReference>
               <reference value="urn:uuid:515d93ed-ff81-4bbc-bbfa-44e4fe733706"></reference>
            </medicationReference>
            <subject>
               <reference value="10091724"></reference>
            </subject>
            <context>
               <reference value="21834046"></reference>
            </context>
            <effectivePeriod>
               <start value="2135-10-23T00:00:00+00:00"></start>
               <end value="2135-10-25T00:00:00+00:00"></end>
            </effectivePeriod>
         </MedicationAdministration>
      </resource>
      <request>
         <method value="POST"></method>
         <url value="MedicationAdministration"></url>
      </request>
   </entry>
   <entry>
      <resource>
         <MedicationAdministration xmlns="http://hl7.org/fhir">
            <meta>
               <profile value="https://www.medizininformatik-initiative.de/fhir/core/modul-medikation/StructureDefinition/MedicationAdministration"></profile>
            </meta>
            <identifier>
               <system value="http://umontreal.ca/prescriptions"></system>
               <value value="21834046_2"></value>
            </identifier>
            <status value="completed"></status>
            <medicationReference>
               <reference value="urn:uuid:515d93ed-ff81-4bbc-bbfa-44e4fe733706"></reference>
            </medicationReference>
            <subject>
               <reference value="10091724"></reference>
            </subject>
            <context>
               <reference value="21834046"></reference>
            </context>
            <effectivePeriod>
               <start value="2135-10-23T00:00:00+00:00"></start>
               <end value="2135-10-24T00:00:00+00:00"></end>
            </effectivePeriod>
         </MedicationAdministration>
      </resource>
      <request>
         <method value="POST"></method>
         <url value="MedicationAdministration"></url>
      </request>
   </entry>
   <entry>
      <resource>
         <MedicationAdministration xmlns="http://hl7.org/fhir">
            <meta>
               <profile value="https://www.medizininformatik-initiative.de/fhir/core/modul-medikation/StructureDefinition/MedicationAdministration"></profile>
            </meta>
            <identifier>
               <system value="http://umontreal.ca/prescriptions"></system>
               <value value="21834046_3"></value>
            </identifier>
            <status value="completed"></status>
            <medicationReference>
               <reference value="urn:uuid:515d93ed-ff81-4bbc-bbfa-44e4fe733706"></reference>
            </medicationReference>
            <subject>
               <reference value="10091724"></reference>
            </subject>
            <context>
               <reference value="21834046"></reference>
            </context>
            <effectivePeriod>
               <start value="2135-10-23T00:00:00+00:00"></start>
               <end value="2135-10-24T00:00:00+00:00"></end>
            </effectivePeriod>
         </MedicationAdministration>
      </resource>
      <request>
         <method value="POST"></method>
         <url value="MedicationAdministration"></url>
      </request>
   </entry>
   <entry>
      <resource>
         <MedicationAdministration xmlns="http://hl7.org/fhir">
            <meta>
               <profile value="https://www.medizininformatik-initiative.de/fhir/core/modul-medikation/StructureDefinition/MedicationAdministration"></profile>
            </meta>
            <identifier>
               <system value="http://umontreal.ca/prescriptions"></system>
               <value value="21834046_4"></value>
            </identifier>
            <status value="completed"></status>
            <medicationReference>
               <reference value="urn:uuid:515d93ed-ff81-4bbc-bbfa-44e4fe733706"></reference>
            </medicationReference>
            <subject>
               <reference value="10091724"></reference>
            </subject>
            <context>
               <reference value="21834046"></reference>
            </context>
            <effectivePeriod>
               <start value="2135-10-24T00:00:00+00:00"></start>
               <end value="2135-10-24T00:00:00+00:00"></end>
            </effectivePeriod>
         </MedicationAdministration>
      </resource>
      <request>
         <method value="POST"></method>
         <url value="MedicationAdministration"></url>
      </request>
   </entry>
   <entry>
      <resource>
         <MedicationAdministration xmlns="http://hl7.org/fhir">
            <meta>
               <profile value="https://www.medizininformatik-initiative.de/fhir/core/modul-medikation/StructureDefinition/MedicationAdministration"></profile>
            </meta>
            <identifier>
               <system value="http://umontreal.ca/prescriptions"></system>
               <value value="21834046_5"></value>
            </identifier>
            <status value="completed"></status>
            <medicationReference>
               <reference value="urn:uuid:515d93ed-ff81-4bbc-bbfa-44e4fe733706"></reference>
            </medicationReference>
            <subject>
               <reference value="10091724"></reference>
            </subject>
            <context>
               <reference value="21834046"></reference>
            </context>
            <effectivePeriod>
               <start value="2135-10-23T00:00:00+00:00"></start>
               <end value="2135-10-25T00:00:00+00:00"></end>
            </effectivePeriod>
         </MedicationAdministration>
      </resource>
      <request>
         <method value="POST"></method>
         <url value="MedicationAdministration"></url>
      </request>
   </entry>
   <entry>
      <resource>
         <MedicationAdministration xmlns="http://hl7.org/fhir">
            <meta>
               <profile value="https://www.medizininformatik-initiative.de/fhir/core/modul-medikation/StructureDefinition/MedicationAdministration"></profile>
            </meta>
            <identifier>
               <system value="http://umontreal.ca/prescriptions"></system>
               <value value="21834046_6"></value>
            </identifier>
            <status value="completed"></status>
            <medicationReference>
               <reference value="urn:uuid:515d93ed-ff81-4bbc-bbfa-44e4fe733706"></reference>
            </medicationReference>
            <subject>
               <reference value="10091724"></reference>
            </subject>
            <context>
               <reference value="21834046"></reference>
            </context>
            <effectivePeriod>
               <start value="2135-10-23T00:00:00+00:00"></start>
               <end value="2135-10-25T00:00:00+00:00"></end>
            </effectivePeriod>
         </MedicationAdministration>
      </resource>
      <request>
         <method value="POST"></method>
         <url value="MedicationAdministration"></url>
      </request>
   </entry>
   <entry>
      <resource>
         <MedicationAdministration xmlns="http://hl7.org/fhir">
            <meta>
               <profile value="https://www.medizininformatik-initiative.de/fhir/core/modul-medikation/StructureDefinition/MedicationAdministration"></profile>
            </meta>
            <identifier>
               <system value="http://umontreal.ca/prescriptions"></system>
               <value value="21834046_7"></value>
            </identifier>
            <status value="completed"></status>
            <medicationReference>
               <reference value="urn:uuid:515d93ed-ff81-4bbc-bbfa-44e4fe733706"></reference>
            </medicationReference>
            <subject>
               <reference value="10091724"></reference>
            </subject>
            <context>
               <reference value="21834046"></reference>
            </context>
            <effectivePeriod>
               <start value="2135-10-23T00:00:00+00:00"></start>
               <end value="2135-10-25T00:00:00+00:00"></end>
            </effectivePeriod>
         </MedicationAdministration>
      </resource>
      <request>
         <method value="POST"></method>
         <url value="MedicationAdministration"></url>
      </request>
   </entry>
   <entry>
      <resource>
         <MedicationAdministration xmlns="http://hl7.org/fhir">
            <meta>
               <profile value="https://www.medizininformatik-initiative.de/fhir/core/modul-medikation/StructureDefinition/MedicationAdministration"></profile>
            </meta>
            <identifier>
               <system value="http://umontreal.ca/prescriptions"></system>
               <value value="21834046_8"></value>
            </identifier>
            <status value="completed"></status>
            <medicationReference>
               <reference value="urn:uuid:515d93ed-ff81-4bbc-bbfa-44e4fe733706"></reference>
            </medicationReference>
            <subject>
               <reference value="10091724"></reference>
            </subject>
            <context>
               <reference value="21834046"></reference>
            </context>
            <effectivePeriod>
               <start value="2135-10-24T00:00:00+00:00"></start>
               <end value="2135-10-24T00:00:00+00:00"></end>
            </effectivePeriod>
         </MedicationAdministration>
      </resource>
      <request>
         <method value="POST"></method>
         <url value="MedicationAdministration"></url>
      </request>
   </entry>
   <entry>
      <resource>
         <MedicationAdministration xmlns="http://hl7.org/fhir">
            <meta>
               <profile value="https://www.medizininformatik-initiative.de/fhir/core/modul-medikation/StructureDefinition/MedicationAdministration"></profile>
            </meta>
            <identifier>
               <system value="http://umontreal.ca/prescriptions"></system>
               <value value="21834046_9"></value>
            </identifier>
            <status value="completed"></status>
            <medicationReference>
               <reference value="urn:uuid:515d93ed-ff81-4bbc-bbfa-44e4fe733706"></reference>
            </medicationReference>
            <subject>
               <reference value="10091724"></reference>
            </subject>
            <context>
               <reference value="21834046"></reference>
            </context>
            <effectivePeriod>
               <start value="2135-10-24T00:00:00+00:00"></start>
               <end value="2135-10-24T00:00:00+00:00"></end>
            </effectivePeriod>
         </MedicationAdministration>
      </resource>
      <request>
         <method value="POST"></method>
         <url value="MedicationAdministration"></url>
      </request>
   </entry>
   <entry>
      <resource>
         <MedicationAdministration xmlns="http://hl7.org/fhir">
            <meta>
               <profile value="https://www.medizininformatik-initiative.de/fhir/core/modul-medikation/StructureDefinition/MedicationAdministration"></profile>
            </meta>
            <identifier>
               <system value="http://umontreal.ca/prescriptions"></system>
               <value value="21834046_10"></value>
            </identifier>
            <status value="completed"></status>
            <medicationReference>
               <reference value="urn:uuid:515d93ed-ff81-4bbc-bbfa-44e4fe733706"></reference>
            </medicationReference>
            <subject>
               <reference value="10091724"></reference>
            </subject>
            <context>
               <reference value="21834046"></reference>
            </context>
            <effectivePeriod>
               <start value="2135-10-24T00:00:00+00:00"></start>
               <end value="2135-10-24T00:00:00+00:00"></end>
            </effectivePeriod>
         </MedicationAdministration>
      </resource>
      <request>
         <method value="POST"></method>
         <url value="MedicationAdministration"></url>
      </request>
   </entry>
   <entry>
      <resource>
         <MedicationAdministration xmlns="http://hl7.org/fhir">
            <meta>
               <profile value="https://www.medizininformatik-initiative.de/fhir/core/modul-medikation/StructureDefinition/MedicationAdministration"></profile>
            </meta>
            <identifier>
               <system value="http://umontreal.ca/prescriptions"></system>
               <value value="21834046_11"></value>
            </identifier>
            <status value="completed"></status>
            <medicationReference>
               <reference value="urn:uuid:515d93ed-ff81-4bbc-bbfa-44e4fe733706"></reference>
            </medicationReference>
            <subject>
               <reference value="10091724"></reference>
            </subject>
            <context>
               <reference value="21834046"></reference>
            </context>
            <effectivePeriod>
               <start value="2135-10-23T00:00:00+00:00"></start>
               <end value="2135-10-24T00:00:00+00:00"></end>
            </effectivePeriod>
         </MedicationAdministration>
      </resource>
      <request>
         <method value="POST"></method>
         <url value="MedicationAdministration"></url>
      </request>
   </entry>
   <entry>
      <resource>
         <MedicationAdministration xmlns="http://hl7.org/fhir">
            <meta>
               <profile value="https://www.medizininformatik-initiative.de/fhir/core/modul-medikation/StructureDefinition/MedicationAdministration"></profile>
            </meta>
            <identifier>
               <system value="http://umontreal.ca/prescriptions"></system>
               <value value="21834046_12"></value>
            </identifier>
            <status value="completed"></status>
            <medicationReference>
               <reference value="urn:uuid:515d93ed-ff81-4bbc-bbfa-44e4fe733706"></reference>
            </medicationReference>
            <subject>
               <reference value="10091724"></reference>
            </subject>
            <context>
               <reference value="21834046"></reference>
            </context>
            <effectivePeriod>
               <start value="2135-10-24T00:00:00+00:00"></start>
               <end value="2135-10-25T00:00:00+00:00"></end>
            </effectivePeriod>
         </MedicationAdministration>
      </resource>
      <request>
         <method value="POST"></method>
         <url value="MedicationAdministration"></url>
      </request>
   </entry>
   <entry>
      <resource>
         <MedicationAdministration xmlns="http://hl7.org/fhir">
            <meta>
               <profile value="https://www.medizininformatik-initiative.de/fhir/core/modul-medikation/StructureDefinition/MedicationAdministration"></profile>
            </meta>
            <identifier>
               <system value="http://umontreal.ca/prescriptions"></system>
               <value value="21834046_13"></value>
            </identifier>
            <status value="completed"></status>
            <medicationReference>
               <reference value="urn:uuid:515d93ed-ff81-4bbc-bbfa-44e4fe733706"></reference>
            </medicationReference>
            <subject>
               <reference value="10091724"></reference>
            </subject>
            <context>
               <reference value="21834046"></reference>
            </context>
            <effectivePeriod>
               <start value="2135-10-23T00:00:00+00:00"></start>
               <end value="2135-10-25T00:00:00+00:00"></end>
            </effectivePeriod>
         </MedicationAdministration>
      </resource>
      <request>
         <method value="POST"></method>
         <url value="MedicationAdministration"></url>
      </request>
   </entry>
   <entry>
      <resource>
         <MedicationAdministration xmlns="http://hl7.org/fhir">
            <meta>
               <profile value="https://www.medizininformatik-initiative.de/fhir/core/modul-medikation/StructureDefinition/MedicationAdministration"></profile>
            </meta>
            <identifier>
               <system value="http://umontreal.ca/prescriptions"></system>
               <value value="21834046_14"></value>
            </identifier>
            <status value="completed"></status>
            <medicationReference>
               <reference value="urn:uuid:515d93ed-ff81-4bbc-bbfa-44e4fe733706"></reference>
            </medicationReference>
            <subject>
               <reference value="10091724"></reference>
            </subject>
            <context>
               <reference value="21834046"></reference>
            </context>
            <effectivePeriod>
               <start value="2135-10-24T00:00:00+00:00"></start>
               <end value="2135-10-25T00:00:00+00:00"></end>
            </effectivePeriod>
         </MedicationAdministration>
      </resource>
      <request>
         <method value="POST"></method>
         <url value="MedicationAdministration"></url>
      </request>
   </entry>
   <entry>
      <resource>
         <MedicationAdministration xmlns="http://hl7.org/fhir">
            <meta>
               <profile value="https://www.medizininformatik-initiative.de/fhir/core/modul-medikation/StructureDefinition/MedicationAdministration"></profile>
            </meta>
            <identifier>
               <system value="http://umontreal.ca/prescriptions"></system>
               <value value="21834046_15"></value>
            </identifier>
            <status value="completed"></status>
            <medicationReference>
               <reference value="urn:uuid:515d93ed-ff81-4bbc-bbfa-44e4fe733706"></reference>
            </medicationReference>
            <subject>
               <reference value="10091724"></reference>
            </subject>
            <context>
               <reference value="21834046"></reference>
            </context>
            <effectivePeriod>
               <start value="2135-10-23T00:00:00+00:00"></start>
               <end value="2135-10-24T00:00:00+00:00"></end>
            </effectivePeriod>
         </MedicationAdministration>
      </resource>
      <request>
         <method value="POST"></method>
         <url value="MedicationAdministration"></url>
      </request>
   </entry>
   <entry>
      <resource>
         <MedicationAdministration xmlns="http://hl7.org/fhir">
            <meta>
               <profile value="https://www.medizininformatik-initiative.de/fhir/core/modul-medikation/StructureDefinition/MedicationAdministration"></profile>
            </meta>
            <identifier>
               <system value="http://umontreal.ca/prescriptions"></system>
               <value value="21834046_16"></value>
            </identifier>
            <status value="completed"></status>
            <medicationReference>
               <reference value="urn:uuid:515d93ed-ff81-4bbc-bbfa-44e4fe733706"></reference>
            </medicationReference>
            <subject>
               <reference value="10091724"></reference>
            </subject>
            <context>
               <reference value="21834046"></reference>
            </context>
            <effectivePeriod>
               <start value="2135-10-23T00:00:00+00:00"></start>
               <end value="2135-10-25T00:00:00+00:00"></end>
            </effectivePeriod>
         </MedicationAdministration>
      </resource>
      <request>
         <method value="POST"></method>
         <url value="MedicationAdministration"></url>
      </request>
   </entry>
   <entry>
      <resource>
         <MedicationAdministration xmlns="http://hl7.org/fhir">
            <meta>
               <profile value="https://www.medizininformatik-initiative.de/fhir/core/modul-medikation/StructureDefinition/MedicationAdministration"></profile>
            </meta>
            <identifier>
               <system value="http://umontreal.ca/prescriptions"></system>
               <value value="21834046_17"></value>
            </identifier>
            <status value="completed"></status>
            <medicationReference>
               <reference value="urn:uuid:515d93ed-ff81-4bbc-bbfa-44e4fe733706"></reference>
            </medicationReference>
            <subject>
               <reference value="10091724"></reference>
            </subject>
            <context>
               <reference value="21834046"></reference>
            </context>
            <effectivePeriod>
               <start value="2135-10-23T00:00:00+00:00"></start>
               <end value="2135-10-24T00:00:00+00:00"></end>
            </effectivePeriod>
         </MedicationAdministration>
      </resource>
      <request>
         <method value="POST"></method>
         <url value="MedicationAdministration"></url>
      </request>
   </entry>
   <entry>
      <resource>
         <MedicationAdministration xmlns="http://hl7.org/fhir">
            <meta>
               <profile value="https://www.medizininformatik-initiative.de/fhir/core/modul-medikation/StructureDefinition/MedicationAdministration"></profile>
            </meta>
            <identifier>
               <system value="http://umontreal.ca/prescriptions"></system>
               <value value="21834046_18"></value>
            </identifier>
            <status value="completed"></status>
            <medicationReference>
               <reference value="urn:uuid:515d93ed-ff81-4bbc-bbfa-44e4fe733706"></reference>
            </medicationReference>
            <subject>
               <reference value="10091724"></reference>
            </subject>
            <context>
               <reference value="21834046"></reference>
            </context>
            <effectivePeriod>
               <start value="2135-10-23T00:00:00+00:00"></start>
               <end value="2135-10-25T00:00:00+00:00"></end>
            </effectivePeriod>
         </MedicationAdministration>
      </resource>
      <request>
         <method value="POST"></method>
         <url value="MedicationAdministration"></url>
      </request>
   </entry>
   <entry>
      <resource>
         <MedicationAdministration xmlns="http://hl7.org/fhir">
            <meta>
               <profile value="https://www.medizininformatik-initiative.de/fhir/core/modul-medikation/StructureDefinition/MedicationAdministration"></profile>
            </meta>
            <identifier>
               <system value="http://umontreal.ca/prescriptions"></system>
               <value value="21834046_19"></value>
            </identifier>
            <status value="completed"></status>
            <medicationReference>
               <reference value="urn:uuid:515d93ed-ff81-4bbc-bbfa-44e4fe733706"></reference>
            </medicationReference>
            <subject>
               <reference value="10091724"></reference>
            </subject>
            <context>
               <reference value="21834046"></reference>
            </context>
            <effectivePeriod>
               <start value="2135-10-24T00:00:00+00:00"></start>
               <end value="2135-10-25T00:00:00+00:00"></end>
            </effectivePeriod>
         </MedicationAdministration>
      </resource>
      <request>
         <method value="POST"></method>
         <url value="MedicationAdministration"></url>
      </request>
   </entry>
   <entry>
      <resource>
         <MedicationAdministration xmlns="http://hl7.org/fhir">
            <meta>
               <profile value="https://www.medizininformatik-initiative.de/fhir/core/modul-medikation/StructureDefinition/MedicationAdministration"></profile>
            </meta>
            <identifier>
               <system value="http://umontreal.ca/prescriptions"></system>
               <value value="21834046_20"></value>
            </identifier>
            <status value="completed"></status>
            <medicationReference>
               <reference value="urn:uuid:515d93ed-ff81-4bbc-bbfa-44e4fe733706"></reference>
            </medicationReference>
            <subject>
               <reference value="10091724"></reference>
            </subject>
            <context>
               <reference value="21834046"></reference>
            </context>
            <effectivePeriod>
               <start value="2135-10-24T00:00:00+00:00"></start>
               <end value="2135-10-25T00:00:00+00:00"></end>
            </effectivePeriod>
         </MedicationAdministration>
      </resource>
      <request>
         <method value="POST"></method>
         <url value="MedicationAdministration"></url>
      </request>
   </entry>
   <entry>
      <resource>
         <MedicationAdministration xmlns="http://hl7.org/fhir">
            <meta>
               <profile value="https://www.medizininformatik-initiative.de/fhir/core/modul-medikation/StructureDefinition/MedicationAdministration"></profile>
            </meta>
            <identifier>
               <system value="http://umontreal.ca/prescriptions"></system>
               <value value="21834046_21"></value>
            </identifier>
            <status value="completed"></status>
            <medicationReference>
               <reference value="urn:uuid:515d93ed-ff81-4bbc-bbfa-44e4fe733706"></reference>
            </medicationReference>
            <subject>
               <reference value="10091724"></reference>
            </subject>
            <context>
               <reference value="21834046"></reference>
            </context>
            <effectivePeriod>
               <start value="2135-10-23T00:00:00+00:00"></start>
               <end value="2135-10-25T00:00:00+00:00"></end>
            </effectivePeriod>
         </MedicationAdministration>
      </resource>
      <request>
         <method value="POST"></method>
         <url value="MedicationAdministration"></url>
      </request>
   </entry>
   <entry>
      <resource>
         <MedicationAdministration xmlns="http://hl7.org/fhir">
            <meta>
               <profile value="https://www.medizininformatik-initiative.de/fhir/core/modul-medikation/StructureDefinition/MedicationAdministration"></profile>
            </meta>
            <identifier>
               <system value="http://umontreal.ca/prescriptions"></system>
               <value value="21834046_22"></value>
            </identifier>
            <status value="completed"></status>
            <medicationReference>
               <reference value="urn:uuid:515d93ed-ff81-4bbc-bbfa-44e4fe733706"></reference>
            </medicationReference>
            <subject>
               <reference value="10091724"></reference>
            </subject>
            <context>
               <reference value="21834046"></reference>
            </context>
            <effectivePeriod>
               <start value="2135-10-23T00:00:00+00:00"></start>
               <end value="2135-10-25T00:00:00+00:00"></end>
            </effectivePeriod>
         </MedicationAdministration>
      </resource>
      <request>
         <method value="POST"></method>
         <url value="MedicationAdministration"></url>
      </request>
   </entry>
   <entry>
      <resource>
         <MedicationAdministration xmlns="http://hl7.org/fhir">
            <meta>
               <profile value="https://www.medizininformatik-initiative.de/fhir/core/modul-medikation/StructureDefinition/MedicationAdministration"></profile>
            </meta>
            <identifier>
               <system value="http://umontreal.ca/prescriptions"></system>
               <value value="21834046_23"></value>
            </identifier>
            <status value="completed"></status>
            <medicationReference>
               <reference value="urn:uuid:515d93ed-ff81-4bbc-bbfa-44e4fe733706"></reference>
            </medicationReference>
            <subject>
               <reference value="10091724"></reference>
            </subject>
            <context>
               <reference value="21834046"></reference>
            </context>
            <effectivePeriod>
               <start value="2135-10-24T00:00:00+00:00"></start>
               <end value="2135-10-25T00:00:00+00:00"></end>
            </effectivePeriod>
         </MedicationAdministration>
      </resource>
      <request>
         <method value="POST"></method>
         <url value="MedicationAdministration"></url>
      </request>
   </entry>
   <entry>
      <resource>
         <MedicationAdministration xmlns="http://hl7.org/fhir">
            <meta>
               <profile value="https://www.medizininformatik-initiative.de/fhir/core/modul-medikation/StructureDefinition/MedicationAdministration"></profile>
            </meta>
            <identifier>
               <system value="http://umontreal.ca/prescriptions"></system>
               <value value="21834046_24"></value>
            </identifier>
            <status value="completed"></status>
            <medicationReference>
               <reference value="urn:uuid:515d93ed-ff81-4bbc-bbfa-44e4fe733706"></reference>
            </medicationReference>
            <subject>
               <reference value="10091724"></reference>
            </subject>
            <context>
               <reference value="21834046"></reference>
            </context>
            <effectivePeriod>
               <start value="2135-10-24T00:00:00+00:00"></start>
               <end value="2135-10-25T00:00:00+00:00"></end>
            </effectivePeriod>
         </MedicationAdministration>
      </resource>
      <request>
         <method value="POST"></method>
         <url value="MedicationAdministration"></url>
      </request>
   </entry>
   <entry>
      <resource>
         <MedicationAdministration xmlns="http://hl7.org/fhir">
            <meta>
               <profile value="https://www.medizininformatik-initiative.de/fhir/core/modul-medikation/StructureDefinition/MedicationAdministration"></profile>
            </meta>
            <identifier>
               <system value="http://umontreal.ca/prescriptions"></system>
               <value value="21834046_25"></value>
            </identifier>
            <status value="completed"></status>
            <medicationReference>
               <reference value="urn:uuid:515d93ed-ff81-4bbc-bbfa-44e4fe733706"></reference>
            </medicationReference>
            <subject>
               <reference value="10091724"></reference>
            </subject>
            <context>
               <reference value="21834046"></reference>
            </context>
            <effectivePeriod>
               <start value="2135-10-23T00:00:00+00:00"></start>
               <end value="2135-10-25T00:00:00+00:00"></end>
            </effectivePeriod>
         </MedicationAdministration>
      </resource>
      <request>
         <method value="POST"></method>
         <url value="MedicationAdministration"></url>
      </request>
   </entry>
   <entry>
      <resource>
         <MedicationAdministration xmlns="http://hl7.org/fhir">
            <meta>
               <profile value="https://www.medizininformatik-initiative.de/fhir/core/modul-medikation/StructureDefinition/MedicationAdministration"></profile>
            </meta>
            <identifier>
               <system value="http://umontreal.ca/prescriptions"></system>
               <value value="21834046_26"></value>
            </identifier>
            <status value="completed"></status>
            <medicationReference>
               <reference value="urn:uuid:515d93ed-ff81-4bbc-bbfa-44e4fe733706"></reference>
            </medicationReference>
            <subject>
               <reference value="10091724"></reference>
            </subject>
            <context>
               <reference value="21834046"></reference>
            </context>
            <effectivePeriod>
               <start value="2135-10-23T00:00:00+00:00"></start>
               <end value="2135-10-25T00:00:00+00:00"></end>
            </effectivePeriod>
         </MedicationAdministration>
      </resource>
      <request>
         <method value="POST"></method>
         <url value="MedicationAdministration"></url>
      </request>
   </entry>
   <entry>
      <resource>
         <MedicationAdministration xmlns="http://hl7.org/fhir">
            <meta>
               <profile value="https://www.medizininformatik-initiative.de/fhir/core/modul-medikation/StructureDefinition/MedicationAdministration"></profile>
            </meta>
            <identifier>
               <system value="http://umontreal.ca/prescriptions"></system>
               <value value="21834046_27"></value>
            </identifier>
            <status value="completed"></status>
            <medicationReference>
               <reference value="urn:uuid:515d93ed-ff81-4bbc-bbfa-44e4fe733706"></reference>
            </medicationReference>
            <subject>
               <reference value="10091724"></reference>
            </subject>
            <context>
               <reference value="21834046"></reference>
            </context>
            <effectivePeriod>
               <start value="2135-10-25T00:00:00+00:00"></start>
               <end value="2135-10-25T00:00:00+00:00"></end>
            </effectivePeriod>
         </MedicationAdministration>
      </resource>
      <request>
         <method value="POST"></method>
         <url value="MedicationAdministration"></url>
      </request>
   </entry>
   <entry>
      <resource>
         <MedicationAdministration xmlns="http://hl7.org/fhir">
            <meta>
               <profile value="https://www.medizininformatik-initiative.de/fhir/core/modul-medikation/StructureDefinition/MedicationAdministration"></profile>
            </meta>
            <identifier>
               <system value="http://umontreal.ca/prescriptions"></system>
               <value value="21834046_28"></value>
            </identifier>
            <status value="completed"></status>
            <medicationReference>
               <reference value="urn:uuid:515d93ed-ff81-4bbc-bbfa-44e4fe733706"></reference>
            </medicationReference>
            <subject>
               <reference value="10091724"></reference>
            </subject>
            <context>
               <reference value="21834046"></reference>
            </context>
            <effectivePeriod>
               <start value="2135-10-23T00:00:00+00:00"></start>
               <end value="2135-10-25T00:00:00+00:00"></end>
            </effectivePeriod>
         </MedicationAdministration>
      </resource>
      <request>
         <method value="POST"></method>
         <url value="MedicationAdministration"></url>
      </request>
   </entry>
   <entry>
      <resource>
         <MedicationAdministration xmlns="http://hl7.org/fhir">
            <meta>
               <profile value="https://www.medizininformatik-initiative.de/fhir/core/modul-medikation/StructureDefinition/MedicationAdministration"></profile>
            </meta>
            <identifier>
               <system value="http://umontreal.ca/prescriptions"></system>
               <value value="21834046_29"></value>
            </identifier>
            <status value="completed"></status>
            <medicationReference>
               <reference value="urn:uuid:515d93ed-ff81-4bbc-bbfa-44e4fe733706"></reference>
            </medicationReference>
            <subject>
               <reference value="10091724"></reference>
            </subject>
            <context>
               <reference value="21834046"></reference>
            </context>
            <effectivePeriod>
               <start value="2135-10-23T00:00:00+00:00"></start>
               <end value="2135-10-25T00:00:00+00:00"></end>
            </effectivePeriod>
         </MedicationAdministration>
      </resource>
      <request>
         <method value="POST"></method>
         <url value="MedicationAdministration"></url>
      </request>
   </entry>
   <entry>
      <resource>
         <MedicationAdministration xmlns="http://hl7.org/fhir">
            <meta>
               <profile value="https://www.medizininformatik-initiative.de/fhir/core/modul-medikation/StructureDefinition/MedicationAdministration"></profile>
            </meta>
            <identifier>
               <system value="http://umontreal.ca/prescriptions"></system>
               <value value="21834046_30"></value>
            </identifier>
            <status value="completed"></status>
            <medicationReference>
               <reference value="urn:uuid:515d93ed-ff81-4bbc-bbfa-44e4fe733706"></reference>
            </medicationReference>
            <subject>
               <reference value="10091724"></reference>
            </subject>
            <context>
               <reference value="21834046"></reference>
            </context>
            <effectivePeriod>
               <start value="2135-10-23T00:00:00+00:00"></start>
               <end value="2135-10-24T00:00:00+00:00"></end>
            </effectivePeriod>
         </MedicationAdministration>
      </resource>
      <request>
         <method value="POST"></method>
         <url value="MedicationAdministration"></url>
      </request>
   </entry>
   <entry>
      <resource>
         <MedicationAdministration xmlns="http://hl7.org/fhir">
            <meta>
               <profile value="https://www.medizininformatik-initiative.de/fhir/core/modul-medikation/StructureDefinition/MedicationAdministration"></profile>
            </meta>
            <identifier>
               <system value="http://umontreal.ca/prescriptions"></system>
               <value value="21834046_31"></value>
            </identifier>
            <status value="completed"></status>
            <medicationReference>
               <reference value="urn:uuid:515d93ed-ff81-4bbc-bbfa-44e4fe733706"></reference>
            </medicationReference>
            <subject>
               <reference value="10091724"></reference>
            </subject>
            <context>
               <reference value="21834046"></reference>
            </context>
            <effectivePeriod>
               <start value="2135-10-24T00:00:00+00:00"></start>
               <end value="2135-10-24T00:00:00+00:00"></end>
            </effectivePeriod>
         </MedicationAdministration>
      </resource>
      <request>
         <method value="POST"></method>
         <url value="MedicationAdministration"></url>
      </request>
   </entry>
   <entry>
      <resource>
         <MedicationAdministration xmlns="http://hl7.org/fhir">
            <meta>
               <profile value="https://www.medizininformatik-initiative.de/fhir/core/modul-medikation/StructureDefinition/MedicationAdministration"></profile>
            </meta>
            <identifier>
               <system value="http://umontreal.ca/prescriptions"></system>
               <value value="21834046_32"></value>
            </identifier>
            <status value="completed"></status>
            <medicationReference>
               <reference value="urn:uuid:515d93ed-ff81-4bbc-bbfa-44e4fe733706"></reference>
            </medicationReference>
            <subject>
               <reference value="10091724"></reference>
            </subject>
            <context>
               <reference value="21834046"></reference>
            </context>
            <effectivePeriod>
               <start value="2135-10-24T00:00:00+00:00"></start>
               <end value="2135-10-24T00:00:00+00:00"></end>
            </effectivePeriod>
         </MedicationAdministration>
      </resource>
      <request>
         <method value="POST"></method>
         <url value="MedicationAdministration"></url>
      </request>
   </entry>
   <entry>
      <resource>
         <Observation xmlns="http://hl7.org/fhir">
            <meta>
               <profile value="https://www.umontreal.ca/fhir/core/modul-labor/StructureDefinition/ObservationLab"></profile>
            </meta>
            <identifier>
               <use value="usual"></use>
               <type>
                  <coding>
                     <system value="http://terminology.hl7.org/CodeSystem/v2-0203"></system>
                     <code value="OBI"></code>
                     <display value="Optometrist license number"></display>
                  </coding>
               </type>
               <system value="http://www.umontreal.ca/labevents"></system>
               <value value="972929"></value>
               <assigner>
                  <reference value="10091724"></reference>
               </assigner>
            </identifier>
            <partOf>
               <reference value="21834046"></reference>
            </partOf>
            <status value="final"></status>
            <code>
               <text value="Hematocrit"></text>
            </code>
            <subject>
               <reference value="10091724"></reference>
            </subject>
            <effectiveDateTime value="2135-10-24T00:00:00+00:00"></effectiveDateTime>
            <valueQuantity>
               <value value="35.5"></value>
               <unit value="%"></unit>
            </valueQuantity>
         </Observation>
      </resource>
      <request>
         <method value="POST"></method>
         <url value="Observation"></url>
      </request>
   </entry>
   <entry>
      <resource>
         <Observation xmlns="http://hl7.org/fhir">
            <meta>
               <profile value="https://www.umontreal.ca/fhir/core/modul-labor/StructureDefinition/ObservationLab"></profile>
            </meta>
            <identifier>
               <use value="usual"></use>
               <type>
                  <coding>
                     <system value="http://terminology.hl7.org/CodeSystem/v2-0203"></system>
                     <code value="OBI"></code>
                     <display value="Optometrist license number"></display>
                  </coding>
               </type>
               <system value="http://www.umontreal.ca/labevents"></system>
               <value value="972930"></value>
               <assigner>
                  <reference value="10091724"></reference>
               </assigner>
            </identifier>
            <partOf>
               <reference value="21834046"></reference>
            </partOf>
            <status value="final"></status>
            <code>
               <text value="Hemoglobin"></text>
            </code>
            <subject>
               <reference value="10091724"></reference>
            </subject>
            <effectiveDateTime value="2135-10-24T00:00:00+00:00"></effectiveDateTime>
            <valueQuantity>
               <value value="11.9"></value>
               <unit value="g/dL"></unit>
            </valueQuantity>
         </Observation>
      </resource>
      <request>
         <method value="POST"></method>
         <url value="Observation"></url>
      </request>
   </entry>
   <entry>
      <resource>
         <Observation xmlns="http://hl7.org/fhir">
            <meta>
               <profile value="https://www.umontreal.ca/fhir/core/modul-labor/StructureDefinition/ObservationLab"></profile>
            </meta>
            <identifier>
               <use value="usual"></use>
               <type>
                  <coding>
                     <system value="http://terminology.hl7.org/CodeSystem/v2-0203"></system>
                     <code value="OBI"></code>
                     <display value="Optometrist license number"></display>
                  </coding>
               </type>
               <system value="http://www.umontreal.ca/labevents"></system>
               <value value="972931"></value>
               <assigner>
                  <reference value="10091724"></reference>
               </assigner>
            </identifier>
            <partOf>
               <reference value="21834046"></reference>
            </partOf>
            <status value="final"></status>
            <code>
               <text value="MCH"></text>
            </code>
            <subject>
               <reference value="10091724"></reference>
            </subject>
            <effectiveDateTime value="2135-10-24T00:00:00+00:00"></effectiveDateTime>
            <valueQuantity>
               <value value="29.8"></value>
               <unit value="pg"></unit>
            </valueQuantity>
         </Observation>
      </resource>
      <request>
         <method value="POST"></method>
         <url value="Observation"></url>
      </request>
   </entry>
   <entry>
      <resource>
         <Observation xmlns="http://hl7.org/fhir">
            <meta>
               <profile value="https://www.umontreal.ca/fhir/core/modul-labor/StructureDefinition/ObservationLab"></profile>
            </meta>
            <identifier>
               <use value="usual"></use>
               <type>
                  <coding>
                     <system value="http://terminology.hl7.org/CodeSystem/v2-0203"></system>
                     <code value="OBI"></code>
                     <display value="Optometrist license number"></display>
                  </coding>
               </type>
               <system value="http://www.umontreal.ca/labevents"></system>
               <value value="972932"></value>
               <assigner>
                  <reference value="10091724"></reference>
               </assigner>
            </identifier>
            <partOf>
               <reference value="21834046"></reference>
            </partOf>
            <status value="final"></status>
            <code>
               <text value="MCHC"></text>
            </code>
            <subject>
               <reference value="10091724"></reference>
            </subject>
            <effectiveDateTime value="2135-10-24T00:00:00+00:00"></effectiveDateTime>
            <valueQuantity>
               <value value="33.5"></value>
               <unit value="g/dL"></unit>
            </valueQuantity>
         </Observation>
      </resource>
      <request>
         <method value="POST"></method>
         <url value="Observation"></url>
      </request>
   </entry>
   <entry>
      <resource>
         <Observation xmlns="http://hl7.org/fhir">
            <meta>
               <profile value="https://www.umontreal.ca/fhir/core/modul-labor/StructureDefinition/ObservationLab"></profile>
            </meta>
            <identifier>
               <use value="usual"></use>
               <type>
                  <coding>
                     <system value="http://terminology.hl7.org/CodeSystem/v2-0203"></system>
                     <code value="OBI"></code>
                     <display value="Optometrist license number"></display>
                  </coding>
               </type>
               <system value="http://www.umontreal.ca/labevents"></system>
               <value value="972933"></value>
               <assigner>
                  <reference value="10091724"></reference>
               </assigner>
            </identifier>
            <partOf>
               <reference value="21834046"></reference>
            </partOf>
            <status value="final"></status>
            <code>
               <text value="MCV"></text>
            </code>
            <subject>
               <reference value="10091724"></reference>
            </subject>
            <effectiveDateTime value="2135-10-24T00:00:00+00:00"></effectiveDateTime>
            <valueQuantity>
               <value value="89.0"></value>
               <unit value="fL"></unit>
            </valueQuantity>
         </Observation>
      </resource>
      <request>
         <method value="POST"></method>
         <url value="Observation"></url>
      </request>
   </entry>
   <entry>
      <resource>
         <Observation xmlns="http://hl7.org/fhir">
            <meta>
               <profile value="https://www.umontreal.ca/fhir/core/modul-labor/StructureDefinition/ObservationLab"></profile>
            </meta>
            <identifier>
               <use value="usual"></use>
               <type>
                  <coding>
                     <system value="http://terminology.hl7.org/CodeSystem/v2-0203"></system>
                     <code value="OBI"></code>
                     <display value="Optometrist license number"></display>
                  </coding>
               </type>
               <system value="http://www.umontreal.ca/labevents"></system>
               <value value="972934"></value>
               <assigner>
                  <reference value="10091724"></reference>
               </assigner>
            </identifier>
            <partOf>
               <reference value="21834046"></reference>
            </partOf>
            <status value="final"></status>
            <code>
               <text value="Platelet Count"></text>
            </code>
            <subject>
               <reference value="10091724"></reference>
            </subject>
            <effectiveDateTime value="2135-10-24T00:00:00+00:00"></effectiveDateTime>
            <valueQuantity>
               <value value="139.0"></value>
               <unit value="K/uL"></unit>
            </valueQuantity>
         </Observation>
      </resource>
      <request>
         <method value="POST"></method>
         <url value="Observation"></url>
      </request>
   </entry>
   <entry>
      <resource>
         <Observation xmlns="http://hl7.org/fhir">
            <meta>
               <profile value="https://www.umontreal.ca/fhir/core/modul-labor/StructureDefinition/ObservationLab"></profile>
            </meta>
            <identifier>
               <use value="usual"></use>
               <type>
                  <coding>
                     <system value="http://terminology.hl7.org/CodeSystem/v2-0203"></system>
                     <code value="OBI"></code>
                     <display value="Optometrist license number"></display>
                  </coding>
               </type>
               <system value="http://www.umontreal.ca/labevents"></system>
               <value value="972935"></value>
               <assigner>
                  <reference value="10091724"></reference>
               </assigner>
            </identifier>
            <partOf>
               <reference value="21834046"></reference>
            </partOf>
            <status value="final"></status>
            <code>
               <text value="RDW"></text>
            </code>
            <subject>
               <reference value="10091724"></reference>
            </subject>
            <effectiveDateTime value="2135-10-24T00:00:00+00:00"></effectiveDateTime>
            <valueQuantity>
               <value value="14.5"></value>
               <unit value="%"></unit>
            </valueQuantity>
         </Observation>
      </resource>
      <request>
         <method value="POST"></method>
         <url value="Observation"></url>
      </request>
   </entry>
   <entry>
      <resource>
         <Observation xmlns="http://hl7.org/fhir">
            <meta>
               <profile value="https://www.umontreal.ca/fhir/core/modul-labor/StructureDefinition/ObservationLab"></profile>
            </meta>
            <identifier>
               <use value="usual"></use>
               <type>
                  <coding>
                     <system value="http://terminology.hl7.org/CodeSystem/v2-0203"></system>
                     <code value="OBI"></code>
                     <display value="Optometrist license number"></display>
                  </coding>
               </type>
               <system value="http://www.umontreal.ca/labevents"></system>
               <value value="972936"></value>
               <assigner>
                  <reference value="10091724"></reference>
               </assigner>
            </identifier>
            <partOf>
               <reference value="21834046"></reference>
            </partOf>
            <status value="final"></status>
            <code>
               <text value="Red Blood Cells"></text>
            </code>
            <subject>
               <reference value="10091724"></reference>
            </subject>
            <effectiveDateTime value="2135-10-24T00:00:00+00:00"></effectiveDateTime>
            <valueQuantity>
               <value value="4.0"></value>
               <unit value="m/uL"></unit>
            </valueQuantity>
         </Observation>
      </resource>
      <request>
         <method value="POST"></method>
         <url value="Observation"></url>
      </request>
   </entry>
   <entry>
      <resource>
         <Observation xmlns="http://hl7.org/fhir">
            <meta>
               <profile value="https://www.umontreal.ca/fhir/core/modul-labor/StructureDefinition/ObservationLab"></profile>
            </meta>
            <identifier>
               <use value="usual"></use>
               <type>
                  <coding>
                     <system value="http://terminology.hl7.org/CodeSystem/v2-0203"></system>
                     <code value="OBI"></code>
                     <display value="Optometrist license number"></display>
                  </coding>
               </type>
               <system value="http://www.umontreal.ca/labevents"></system>
               <value value="972937"></value>
               <assigner>
                  <reference value="10091724"></reference>
               </assigner>
            </identifier>
            <partOf>
               <reference value="21834046"></reference>
            </partOf>
            <status value="final"></status>
            <code>
               <text value="White Blood Cells"></text>
            </code>
            <subject>
               <reference value="10091724"></reference>
            </subject>
            <effectiveDateTime value="2135-10-24T00:00:00+00:00"></effectiveDateTime>
            <valueQuantity>
               <value value="5.8"></value>
               <unit value="K/uL"></unit>
            </valueQuantity>
         </Observation>
      </resource>
      <request>
         <method value="POST"></method>
         <url value="Observation"></url>
      </request>
   </entry>
   <entry>
      <resource>
         <Observation xmlns="http://hl7.org/fhir">
            <meta>
               <profile value="https://www.umontreal.ca/fhir/core/modul-labor/StructureDefinition/ObservationLab"></profile>
            </meta>
            <identifier>
               <use value="usual"></use>
               <type>
                  <coding>
                     <system value="http://terminology.hl7.org/CodeSystem/v2-0203"></system>
                     <code value="OBI"></code>
                     <display value="Optometrist license number"></display>
                  </coding>
               </type>
               <system value="http://www.umontreal.ca/labevents"></system>
               <value value="972938"></value>
               <assigner>
                  <reference value="10091724"></reference>
               </assigner>
            </identifier>
            <partOf>
               <reference value="21834046"></reference>
            </partOf>
            <status value="final"></status>
            <code>
               <text value="RDW-SD"></text>
            </code>
            <subject>
               <reference value="10091724"></reference>
            </subject>
            <effectiveDateTime value="2135-10-24T00:00:00+00:00"></effectiveDateTime>
            <valueQuantity>
               <value value="46.1"></value>
               <unit value="fL"></unit>
            </valueQuantity>
         </Observation>
      </resource>
      <request>
         <method value="POST"></method>
         <url value="Observation"></url>
      </request>
   </entry>
   <entry>
      <resource>
         <Observation xmlns="http://hl7.org/fhir">
            <meta>
               <profile value="https://www.umontreal.ca/fhir/core/modul-labor/StructureDefinition/ObservationLab"></profile>
            </meta>
            <identifier>
               <use value="usual"></use>
               <type>
                  <coding>
                     <system value="http://terminology.hl7.org/CodeSystem/v2-0203"></system>
                     <code value="OBI"></code>
                     <display value="Optometrist license number"></display>
                  </coding>
               </type>
               <system value="http://www.umontreal.ca/labevents"></system>
               <value value="972939"></value>
               <assigner>
                  <reference value="10091724"></reference>
               </assigner>
            </identifier>
            <partOf>
               <reference value="21834046"></reference>
            </partOf>
            <status value="final"></status>
            <code>
               <text value="Anion Gap"></text>
            </code>
            <subject>
               <reference value="10091724"></reference>
            </subject>
            <effectiveDateTime value="2135-10-24T00:00:00+00:00"></effectiveDateTime>
            <valueQuantity>
               <value value="13.0"></value>
               <unit value="mEq/L"></unit>
            </valueQuantity>
            <note>
               <text value="New reference range as of ___."></text>
            </note>
         </Observation>
      </resource>
      <request>
         <method value="POST"></method>
         <url value="Observation"></url>
      </request>
   </entry>
   <entry>
      <resource>
         <Observation xmlns="http://hl7.org/fhir">
            <meta>
               <profile value="https://www.umontreal.ca/fhir/core/modul-labor/StructureDefinition/ObservationLab"></profile>
            </meta>
            <identifier>
               <use value="usual"></use>
               <type>
                  <coding>
                     <system value="http://terminology.hl7.org/CodeSystem/v2-0203"></system>
                     <code value="OBI"></code>
                     <display value="Optometrist license number"></display>
                  </coding>
               </type>
               <system value="http://www.umontreal.ca/labevents"></system>
               <value value="972940"></value>
               <assigner>
                  <reference value="10091724"></reference>
               </assigner>
            </identifier>
            <partOf>
               <reference value="21834046"></reference>
            </partOf>
            <status value="final"></status>
            <code>
               <text value="Bicarbonate"></text>
            </code>
            <subject>
               <reference value="10091724"></reference>
            </subject>
            <effectiveDateTime value="2135-10-24T00:00:00+00:00"></effectiveDateTime>
            <valueQuantity>
               <value value="24.0"></value>
               <unit value="mEq/L"></unit>
            </valueQuantity>
         </Observation>
      </resource>
      <request>
         <method value="POST"></method>
         <url value="Observation"></url>
      </request>
   </entry>
   <entry>
      <resource>
         <Observation xmlns="http://hl7.org/fhir">
            <meta>
               <profile value="https://www.umontreal.ca/fhir/core/modul-labor/StructureDefinition/ObservationLab"></profile>
            </meta>
            <identifier>
               <use value="usual"></use>
               <type>
                  <coding>
                     <system value="http://terminology.hl7.org/CodeSystem/v2-0203"></system>
                     <code value="OBI"></code>
                     <display value="Optometrist license number"></display>
                  </coding>
               </type>
               <system value="http://www.umontreal.ca/labevents"></system>
               <value value="972941"></value>
               <assigner>
                  <reference value="10091724"></reference>
               </assigner>
            </identifier>
            <partOf>
               <reference value="21834046"></reference>
            </partOf>
            <status value="final"></status>
            <code>
               <text value="Calcium, Total"></text>
            </code>
            <subject>
               <reference value="10091724"></reference>
            </subject>
            <effectiveDateTime value="2135-10-24T00:00:00+00:00"></effectiveDateTime>
            <valueQuantity>
               <value value="8.9"></value>
               <unit value="mg/dL"></unit>
            </valueQuantity>
         </Observation>
      </resource>
      <request>
         <method value="POST"></method>
         <url value="Observation"></url>
      </request>
   </entry>
   <entry>
      <resource>
         <Observation xmlns="http://hl7.org/fhir">
            <meta>
               <profile value="https://www.umontreal.ca/fhir/core/modul-labor/StructureDefinition/ObservationLab"></profile>
            </meta>
            <identifier>
               <use value="usual"></use>
               <type>
                  <coding>
                     <system value="http://terminology.hl7.org/CodeSystem/v2-0203"></system>
                     <code value="OBI"></code>
                     <display value="Optometrist license number"></display>
                  </coding>
               </type>
               <system value="http://www.umontreal.ca/labevents"></system>
               <value value="972942"></value>
               <assigner>
                  <reference value="10091724"></reference>
               </assigner>
            </identifier>
            <partOf>
               <reference value="21834046"></reference>
            </partOf>
            <status value="final"></status>
            <code>
               <text value="Chloride"></text>
            </code>
            <subject>
               <reference value="10091724"></reference>
            </subject>
            <effectiveDateTime value="2135-10-24T00:00:00+00:00"></effectiveDateTime>
            <valueQuantity>
               <value value="104.0"></value>
               <unit value="mEq/L"></unit>
            </valueQuantity>
         </Observation>
      </resource>
      <request>
         <method value="POST"></method>
         <url value="Observation"></url>
      </request>
   </entry>
   <entry>
      <resource>
         <Observation xmlns="http://hl7.org/fhir">
            <meta>
               <profile value="https://www.umontreal.ca/fhir/core/modul-labor/StructureDefinition/ObservationLab"></profile>
            </meta>
            <identifier>
               <use value="usual"></use>
               <type>
                  <coding>
                     <system value="http://terminology.hl7.org/CodeSystem/v2-0203"></system>
                     <code value="OBI"></code>
                     <display value="Optometrist license number"></display>
                  </coding>
               </type>
               <system value="http://www.umontreal.ca/labevents"></system>
               <value value="972943"></value>
               <assigner>
                  <reference value="10091724"></reference>
               </assigner>
            </identifier>
            <partOf>
               <reference value="21834046"></reference>
            </partOf>
            <status value="final"></status>
            <code>
               <text value="Creatinine"></text>
            </code>
            <subject>
               <reference value="10091724"></reference>
            </subject>
            <effectiveDateTime value="2135-10-24T00:00:00+00:00"></effectiveDateTime>
            <valueQuantity>
               <value value="1.5"></value>
               <unit value="mg/dL"></unit>
            </valueQuantity>
         </Observation>
      </resource>
      <request>
         <method value="POST"></method>
         <url value="Observation"></url>
      </request>
   </entry>
   <entry>
      <resource>
         <Observation xmlns="http://hl7.org/fhir">
            <meta>
               <profile value="https://www.umontreal.ca/fhir/core/modul-labor/StructureDefinition/ObservationLab"></profile>
            </meta>
            <identifier>
               <use value="usual"></use>
               <type>
                  <coding>
                     <system value="http://terminology.hl7.org/CodeSystem/v2-0203"></system>
                     <code value="OBI"></code>
                     <display value="Optometrist license number"></display>
                  </coding>
               </type>
               <system value="http://www.umontreal.ca/labevents"></system>
               <value value="972944"></value>
               <assigner>
                  <reference value="10091724"></reference>
               </assigner>
            </identifier>
            <partOf>
               <reference value="21834046"></reference>
            </partOf>
            <status value="final"></status>
            <code>
               <text value="Glucose"></text>
            </code>
            <subject>
               <reference value="10091724"></reference>
            </subject>
            <effectiveDateTime value="2135-10-24T00:00:00+00:00"></effectiveDateTime>
            <valueQuantity>
               <value value="163.0"></value>
               <unit value="mg/dL"></unit>
            </valueQuantity>
            <note>
               <text value="If fasting, 70-100 normal, &gt;125 provisional diabetes."></text>
            </note>
         </Observation>
      </resource>
      <request>
         <method value="POST"></method>
         <url value="Observation"></url>
      </request>
   </entry>
   <entry>
      <resource>
         <Observation xmlns="http://hl7.org/fhir">
            <meta>
               <profile value="https://www.umontreal.ca/fhir/core/modul-labor/StructureDefinition/ObservationLab"></profile>
            </meta>
            <identifier>
               <use value="usual"></use>
               <type>
                  <coding>
                     <system value="http://terminology.hl7.org/CodeSystem/v2-0203"></system>
                     <code value="OBI"></code>
                     <display value="Optometrist license number"></display>
                  </coding>
               </type>
               <system value="http://www.umontreal.ca/labevents"></system>
               <value value="972945"></value>
               <assigner>
                  <reference value="10091724"></reference>
               </assigner>
            </identifier>
            <partOf>
               <reference value="21834046"></reference>
            </partOf>
            <status value="final"></status>
            <code>
               <text value="H"></text>
            </code>
            <subject>
               <reference value="10091724"></reference>
            </subject>
            <effectiveDateTime value="2135-10-24T00:00:00+00:00"></effectiveDateTime>
            <valueQuantity>
               <value value="16.0"></value>
            </valueQuantity>
         </Observation>
      </resource>
      <request>
         <method value="POST"></method>
         <url value="Observation"></url>
      </request>
   </entry>
   <entry>
      <resource>
         <Observation xmlns="http://hl7.org/fhir">
            <meta>
               <profile value="https://www.umontreal.ca/fhir/core/modul-labor/StructureDefinition/ObservationLab"></profile>
            </meta>
            <identifier>
               <use value="usual"></use>
               <type>
                  <coding>
                     <system value="http://terminology.hl7.org/CodeSystem/v2-0203"></system>
                     <code value="OBI"></code>
                     <display value="Optometrist license number"></display>
                  </coding>
               </type>
               <system value="http://www.umontreal.ca/labevents"></system>
               <value value="972946"></value>
               <assigner>
                  <reference value="10091724"></reference>
               </assigner>
            </identifier>
            <partOf>
               <reference value="21834046"></reference>
            </partOf>
            <status value="final"></status>
            <code>
               <text value="I"></text>
            </code>
            <subject>
               <reference value="10091724"></reference>
            </subject>
            <effectiveDateTime value="2135-10-24T00:00:00+00:00"></effectiveDateTime>
            <valueQuantity>
               <value value="1.0"></value>
            </valueQuantity>
         </Observation>
      </resource>
      <request>
         <method value="POST"></method>
         <url value="Observation"></url>
      </request>
   </entry>
   <entry>
      <resource>
         <Observation xmlns="http://hl7.org/fhir">
            <meta>
               <profile value="https://www.umontreal.ca/fhir/core/modul-labor/StructureDefinition/ObservationLab"></profile>
            </meta>
            <identifier>
               <use value="usual"></use>
               <type>
                  <coding>
                     <system value="http://terminology.hl7.org/CodeSystem/v2-0203"></system>
                     <code value="OBI"></code>
                     <display value="Optometrist license number"></display>
                  </coding>
               </type>
               <system value="http://www.umontreal.ca/labevents"></system>
               <value value="972947"></value>
               <assigner>
                  <reference value="10091724"></reference>
               </assigner>
            </identifier>
            <partOf>
               <reference value="21834046"></reference>
            </partOf>
            <status value="final"></status>
            <code>
               <text value="Magnesium"></text>
            </code>
            <subject>
               <reference value="10091724"></reference>
            </subject>
            <effectiveDateTime value="2135-10-24T00:00:00+00:00"></effectiveDateTime>
            <valueQuantity>
               <value value="1.8"></value>
               <unit value="mg/dL"></unit>
            </valueQuantity>
         </Observation>
      </resource>
      <request>
         <method value="POST"></method>
         <url value="Observation"></url>
      </request>
   </entry>
   <entry>
      <resource>
         <Observation xmlns="http://hl7.org/fhir">
            <meta>
               <profile value="https://www.umontreal.ca/fhir/core/modul-labor/StructureDefinition/ObservationLab"></profile>
            </meta>
            <identifier>
               <use value="usual"></use>
               <type>
                  <coding>
                     <system value="http://terminology.hl7.org/CodeSystem/v2-0203"></system>
                     <code value="OBI"></code>
                     <display value="Optometrist license number"></display>
                  </coding>
               </type>
               <system value="http://www.umontreal.ca/labevents"></system>
               <value value="972948"></value>
               <assigner>
                  <reference value="10091724"></reference>
               </assigner>
            </identifier>
            <partOf>
               <reference value="21834046"></reference>
            </partOf>
            <status value="final"></status>
            <code>
               <text value="Phosphate"></text>
            </code>
            <subject>
               <reference value="10091724"></reference>
            </subject>
            <effectiveDateTime value="2135-10-24T00:00:00+00:00"></effectiveDateTime>
            <valueQuantity>
               <value value="3.4"></value>
               <unit value="mg/dL"></unit>
            </valueQuantity>
         </Observation>
      </resource>
      <request>
         <method value="POST"></method>
         <url value="Observation"></url>
      </request>
   </entry>
   <entry>
      <resource>
         <Observation xmlns="http://hl7.org/fhir">
            <meta>
               <profile value="https://www.umontreal.ca/fhir/core/modul-labor/StructureDefinition/ObservationLab"></profile>
            </meta>
            <identifier>
               <use value="usual"></use>
               <type>
                  <coding>
                     <system value="http://terminology.hl7.org/CodeSystem/v2-0203"></system>
                     <code value="OBI"></code>
                     <display value="Optometrist license number"></display>
                  </coding>
               </type>
               <system value="http://www.umontreal.ca/labevents"></system>
               <value value="972949"></value>
               <assigner>
                  <reference value="10091724"></reference>
               </assigner>
            </identifier>
            <partOf>
               <reference value="21834046"></reference>
            </partOf>
            <status value="final"></status>
            <code>
               <text value="Potassium"></text>
            </code>
            <subject>
               <reference value="10091724"></reference>
            </subject>
            <effectiveDateTime value="2135-10-24T00:00:00+00:00"></effectiveDateTime>
            <valueQuantity>
               <value value="4.7"></value>
               <unit value="mEq/L"></unit>
            </valueQuantity>
            <note>
               <text value="New reference range as of ___."></text>
            </note>
         </Observation>
      </resource>
      <request>
         <method value="POST"></method>
         <url value="Observation"></url>
      </request>
   </entry>
   <entry>
      <resource>
         <Observation xmlns="http://hl7.org/fhir">
            <meta>
               <profile value="https://www.umontreal.ca/fhir/core/modul-labor/StructureDefinition/ObservationLab"></profile>
            </meta>
            <identifier>
               <use value="usual"></use>
               <type>
                  <coding>
                     <system value="http://terminology.hl7.org/CodeSystem/v2-0203"></system>
                     <code value="OBI"></code>
                     <display value="Optometrist license number"></display>
                  </coding>
               </type>
               <system value="http://www.umontreal.ca/labevents"></system>
               <value value="972950"></value>
               <assigner>
                  <reference value="10091724"></reference>
               </assigner>
            </identifier>
            <partOf>
               <reference value="21834046"></reference>
            </partOf>
            <status value="final"></status>
            <code>
               <text value="Sodium"></text>
            </code>
            <subject>
               <reference value="10091724"></reference>
            </subject>
            <effectiveDateTime value="2135-10-24T00:00:00+00:00"></effectiveDateTime>
            <valueQuantity>
               <value value="141.0"></value>
               <unit value="mEq/L"></unit>
            </valueQuantity>
            <note>
               <text value="New reference range as of ___."></text>
            </note>
         </Observation>
      </resource>
      <request>
         <method value="POST"></method>
         <url value="Observation"></url>
      </request>
   </entry>
   <entry>
      <resource>
         <Observation xmlns="http://hl7.org/fhir">
            <meta>
               <profile value="https://www.umontreal.ca/fhir/core/modul-labor/StructureDefinition/ObservationLab"></profile>
            </meta>
            <identifier>
               <use value="usual"></use>
               <type>
                  <coding>
                     <system value="http://terminology.hl7.org/CodeSystem/v2-0203"></system>
                     <code value="OBI"></code>
                     <display value="Optometrist license number"></display>
                  </coding>
               </type>
               <system value="http://www.umontreal.ca/labevents"></system>
               <value value="972951"></value>
               <assigner>
                  <reference value="10091724"></reference>
               </assigner>
            </identifier>
            <partOf>
               <reference value="21834046"></reference>
            </partOf>
            <status value="final"></status>
            <code>
               <text value="Urea Nitrogen"></text>
            </code>
            <subject>
               <reference value="10091724"></reference>
            </subject>
            <effectiveDateTime value="2135-10-24T00:00:00+00:00"></effectiveDateTime>
            <valueQuantity>
               <value value="31.0"></value>
               <unit value="mg/dL"></unit>
            </valueQuantity>
         </Observation>
      </resource>
      <request>
         <method value="POST"></method>
         <url value="Observation"></url>
      </request>
   </entry>
   <entry>
      <resource>
         <Observation xmlns="http://hl7.org/fhir">
            <meta>
               <profile value="https://www.umontreal.ca/fhir/core/modul-labor/StructureDefinition/ObservationLab"></profile>
            </meta>
            <identifier>
               <use value="usual"></use>
               <type>
                  <coding>
                     <system value="http://terminology.hl7.org/CodeSystem/v2-0203"></system>
                     <code value="OBI"></code>
                     <display value="Optometrist license number"></display>
                  </coding>
               </type>
               <system value="http://www.umontreal.ca/labevents"></system>
               <value value="972952"></value>
               <assigner>
                  <reference value="10091724"></reference>
               </assigner>
            </identifier>
            <partOf>
               <reference value="21834046"></reference>
            </partOf>
            <status value="final"></status>
            <code>
               <text value="L"></text>
            </code>
            <subject>
               <reference value="10091724"></reference>
            </subject>
            <effectiveDateTime value="2135-10-24T00:00:00+00:00"></effectiveDateTime>
            <valueQuantity>
               <value value="8.0"></value>
            </valueQuantity>
         </Observation>
      </resource>
      <request>
         <method value="POST"></method>
         <url value="Observation"></url>
      </request>
   </entry>
   <entry>
      <resource>
         <Observation xmlns="http://hl7.org/fhir">
            <meta>
               <profile value="https://www.umontreal.ca/fhir/core/modul-labor/StructureDefinition/ObservationLab"></profile>
            </meta>
            <identifier>
               <use value="usual"></use>
               <type>
                  <coding>
                     <system value="http://terminology.hl7.org/CodeSystem/v2-0203"></system>
                     <code value="OBI"></code>
                     <display value="Optometrist license number"></display>
                  </coding>
               </type>
               <system value="http://www.umontreal.ca/labevents"></system>
               <value value="972953"></value>
               <assigner>
                  <reference value="10091724"></reference>
               </assigner>
            </identifier>
            <partOf>
               <reference value="21834046"></reference>
            </partOf>
            <status value="final"></status>
            <code>
               <text value="INR(PT)"></text>
            </code>
            <subject>
               <reference value="10091724"></reference>
            </subject>
            <effectiveDateTime value="2135-10-24T00:00:00+00:00"></effectiveDateTime>
            <valueQuantity>
               <value value="1.3"></value>
            </valueQuantity>
         </Observation>
      </resource>
      <request>
         <method value="POST"></method>
         <url value="Observation"></url>
      </request>
   </entry>
   <entry>
      <resource>
         <Observation xmlns="http://hl7.org/fhir">
            <meta>
               <profile value="https://www.umontreal.ca/fhir/core/modul-labor/StructureDefinition/ObservationLab"></profile>
            </meta>
            <identifier>
               <use value="usual"></use>
               <type>
                  <coding>
                     <system value="http://terminology.hl7.org/CodeSystem/v2-0203"></system>
                     <code value="OBI"></code>
                     <display value="Optometrist license number"></display>
                  </coding>
               </type>
               <system value="http://www.umontreal.ca/labevents"></system>
               <value value="972954"></value>
               <assigner>
                  <reference value="10091724"></reference>
               </assigner>
            </identifier>
            <partOf>
               <reference value="21834046"></reference>
            </partOf>
            <status value="final"></status>
            <code>
               <text value="PT"></text>
            </code>
            <subject>
               <reference value="10091724"></reference>
            </subject>
            <effectiveDateTime value="2135-10-24T00:00:00+00:00"></effectiveDateTime>
            <valueQuantity>
               <value value="14.0"></value>
               <unit value="sec"></unit>
            </valueQuantity>
         </Observation>
      </resource>
      <request>
         <method value="POST"></method>
         <url value="Observation"></url>
      </request>
   </entry>
   <entry>
      <resource>
         <Observation xmlns="http://hl7.org/fhir">
            <meta>
               <profile value="https://www.umontreal.ca/fhir/core/modul-labor/StructureDefinition/ObservationLab"></profile>
            </meta>
            <identifier>
               <use value="usual"></use>
               <type>
                  <coding>
                     <system value="http://terminology.hl7.org/CodeSystem/v2-0203"></system>
                     <code value="OBI"></code>
                     <display value="Optometrist license number"></display>
                  </coding>
               </type>
               <system value="http://www.umontreal.ca/labevents"></system>
               <value value="972955"></value>
               <assigner>
                  <reference value="10091724"></reference>
               </assigner>
            </identifier>
            <partOf>
               <reference value="21834046"></reference>
            </partOf>
            <status value="final"></status>
            <code>
               <text value="PTT"></text>
            </code>
            <subject>
               <reference value="10091724"></reference>
            </subject>
            <effectiveDateTime value="2135-10-24T00:00:00+00:00"></effectiveDateTime>
            <valueQuantity>
               <value value="33.1"></value>
               <unit value="sec"></unit>
            </valueQuantity>
         </Observation>
      </resource>
      <request>
         <method value="POST"></method>
         <url value="Observation"></url>
      </request>
   </entry>
   <entry>
      <resource>
         <Observation xmlns="http://hl7.org/fhir">
            <meta>
               <profile value="https://www.umontreal.ca/fhir/core/modul-labor/StructureDefinition/ObservationLab"></profile>
            </meta>
            <identifier>
               <use value="usual"></use>
               <type>
                  <coding>
                     <system value="http://terminology.hl7.org/CodeSystem/v2-0203"></system>
                     <code value="OBI"></code>
                     <display value="Optometrist license number"></display>
                  </coding>
               </type>
               <system value="http://www.umontreal.ca/labevents"></system>
               <value value="972956"></value>
               <assigner>
                  <reference value="10091724"></reference>
               </assigner>
            </identifier>
            <partOf>
               <reference value="21834046"></reference>
            </partOf>
            <status value="final"></status>
            <code>
               <text value="Hematocrit"></text>
            </code>
            <subject>
               <reference value="10091724"></reference>
            </subject>
            <effectiveDateTime value="2135-10-25T00:00:00+00:00"></effectiveDateTime>
            <valueQuantity>
               <value value="35.6"></value>
               <unit value="%"></unit>
            </valueQuantity>
         </Observation>
      </resource>
      <request>
         <method value="POST"></method>
         <url value="Observation"></url>
      </request>
   </entry>
   <entry>
      <resource>
         <Observation xmlns="http://hl7.org/fhir">
            <meta>
               <profile value="https://www.umontreal.ca/fhir/core/modul-labor/StructureDefinition/ObservationLab"></profile>
            </meta>
            <identifier>
               <use value="usual"></use>
               <type>
                  <coding>
                     <system value="http://terminology.hl7.org/CodeSystem/v2-0203"></system>
                     <code value="OBI"></code>
                     <display value="Optometrist license number"></display>
                  </coding>
               </type>
               <system value="http://www.umontreal.ca/labevents"></system>
               <value value="972957"></value>
               <assigner>
                  <reference value="10091724"></reference>
               </assigner>
            </identifier>
            <partOf>
               <reference value="21834046"></reference>
            </partOf>
            <status value="final"></status>
            <code>
               <text value="Hemoglobin"></text>
            </code>
            <subject>
               <reference value="10091724"></reference>
            </subject>
            <effectiveDateTime value="2135-10-25T00:00:00+00:00"></effectiveDateTime>
            <valueQuantity>
               <value value="11.8"></value>
               <unit value="g/dL"></unit>
            </valueQuantity>
         </Observation>
      </resource>
      <request>
         <method value="POST"></method>
         <url value="Observation"></url>
      </request>
   </entry>
   <entry>
      <resource>
         <Observation xmlns="http://hl7.org/fhir">
            <meta>
               <profile value="https://www.umontreal.ca/fhir/core/modul-labor/StructureDefinition/ObservationLab"></profile>
            </meta>
            <identifier>
               <use value="usual"></use>
               <type>
                  <coding>
                     <system value="http://terminology.hl7.org/CodeSystem/v2-0203"></system>
                     <code value="OBI"></code>
                     <display value="Optometrist license number"></display>
                  </coding>
               </type>
               <system value="http://www.umontreal.ca/labevents"></system>
               <value value="972958"></value>
               <assigner>
                  <reference value="10091724"></reference>
               </assigner>
            </identifier>
            <partOf>
               <reference value="21834046"></reference>
            </partOf>
            <status value="final"></status>
            <code>
               <text value="MCH"></text>
            </code>
            <subject>
               <reference value="10091724"></reference>
            </subject>
            <effectiveDateTime value="2135-10-25T00:00:00+00:00"></effectiveDateTime>
            <valueQuantity>
               <value value="29.3"></value>
               <unit value="pg"></unit>
            </valueQuantity>
         </Observation>
      </resource>
      <request>
         <method value="POST"></method>
         <url value="Observation"></url>
      </request>
   </entry>
   <entry>
      <resource>
         <Observation xmlns="http://hl7.org/fhir">
            <meta>
               <profile value="https://www.umontreal.ca/fhir/core/modul-labor/StructureDefinition/ObservationLab"></profile>
            </meta>
            <identifier>
               <use value="usual"></use>
               <type>
                  <coding>
                     <system value="http://terminology.hl7.org/CodeSystem/v2-0203"></system>
                     <code value="OBI"></code>
                     <display value="Optometrist license number"></display>
                  </coding>
               </type>
               <system value="http://www.umontreal.ca/labevents"></system>
               <value value="972959"></value>
               <assigner>
                  <reference value="10091724"></reference>
               </assigner>
            </identifier>
            <partOf>
               <reference value="21834046"></reference>
            </partOf>
            <status value="final"></status>
            <code>
               <text value="MCHC"></text>
            </code>
            <subject>
               <reference value="10091724"></reference>
            </subject>
            <effectiveDateTime value="2135-10-25T00:00:00+00:00"></effectiveDateTime>
            <valueQuantity>
               <value value="33.1"></value>
               <unit value="g/dL"></unit>
            </valueQuantity>
         </Observation>
      </resource>
      <request>
         <method value="POST"></method>
         <url value="Observation"></url>
      </request>
   </entry>
   <entry>
      <resource>
         <Observation xmlns="http://hl7.org/fhir">
            <meta>
               <profile value="https://www.umontreal.ca/fhir/core/modul-labor/StructureDefinition/ObservationLab"></profile>
            </meta>
            <identifier>
               <use value="usual"></use>
               <type>
                  <coding>
                     <system value="http://terminology.hl7.org/CodeSystem/v2-0203"></system>
                     <code value="OBI"></code>
                     <display value="Optometrist license number"></display>
                  </coding>
               </type>
               <system value="http://www.umontreal.ca/labevents"></system>
               <value value="972960"></value>
               <assigner>
                  <reference value="10091724"></reference>
               </assigner>
            </identifier>
            <partOf>
               <reference value="21834046"></reference>
            </partOf>
            <status value="final"></status>
            <code>
               <text value="MCV"></text>
            </code>
            <subject>
               <reference value="10091724"></reference>
            </subject>
            <effectiveDateTime value="2135-10-25T00:00:00+00:00"></effectiveDateTime>
            <valueQuantity>
               <value value="88.0"></value>
               <unit value="fL"></unit>
            </valueQuantity>
         </Observation>
      </resource>
      <request>
         <method value="POST"></method>
         <url value="Observation"></url>
      </request>
   </entry>
   <entry>
      <resource>
         <Observation xmlns="http://hl7.org/fhir">
            <meta>
               <profile value="https://www.umontreal.ca/fhir/core/modul-labor/StructureDefinition/ObservationLab"></profile>
            </meta>
            <identifier>
               <use value="usual"></use>
               <type>
                  <coding>
                     <system value="http://terminology.hl7.org/CodeSystem/v2-0203"></system>
                     <code value="OBI"></code>
                     <display value="Optometrist license number"></display>
                  </coding>
               </type>
               <system value="http://www.umontreal.ca/labevents"></system>
               <value value="972961"></value>
               <assigner>
                  <reference value="10091724"></reference>
               </assigner>
            </identifier>
            <partOf>
               <reference value="21834046"></reference>
            </partOf>
            <status value="final"></status>
            <code>
               <text value="Platelet Count"></text>
            </code>
            <subject>
               <reference value="10091724"></reference>
            </subject>
            <effectiveDateTime value="2135-10-25T00:00:00+00:00"></effectiveDateTime>
            <valueQuantity>
               <value value="136.0"></value>
               <unit value="K/uL"></unit>
            </valueQuantity>
         </Observation>
      </resource>
      <request>
         <method value="POST"></method>
         <url value="Observation"></url>
      </request>
   </entry>
   <entry>
      <resource>
         <Observation xmlns="http://hl7.org/fhir">
            <meta>
               <profile value="https://www.umontreal.ca/fhir/core/modul-labor/StructureDefinition/ObservationLab"></profile>
            </meta>
            <identifier>
               <use value="usual"></use>
               <type>
                  <coding>
                     <system value="http://terminology.hl7.org/CodeSystem/v2-0203"></system>
                     <code value="OBI"></code>
                     <display value="Optometrist license number"></display>
                  </coding>
               </type>
               <system value="http://www.umontreal.ca/labevents"></system>
               <value value="972962"></value>
               <assigner>
                  <reference value="10091724"></reference>
               </assigner>
            </identifier>
            <partOf>
               <reference value="21834046"></reference>
            </partOf>
            <status value="final"></status>
            <code>
               <text value="RDW"></text>
            </code>
            <subject>
               <reference value="10091724"></reference>
            </subject>
            <effectiveDateTime value="2135-10-25T00:00:00+00:00"></effectiveDateTime>
            <valueQuantity>
               <value value="14.2"></value>
               <unit value="%"></unit>
            </valueQuantity>
         </Observation>
      </resource>
      <request>
         <method value="POST"></method>
         <url value="Observation"></url>
      </request>
   </entry>
   <entry>
      <resource>
         <Observation xmlns="http://hl7.org/fhir">
            <meta>
               <profile value="https://www.umontreal.ca/fhir/core/modul-labor/StructureDefinition/ObservationLab"></profile>
            </meta>
            <identifier>
               <use value="usual"></use>
               <type>
                  <coding>
                     <system value="http://terminology.hl7.org/CodeSystem/v2-0203"></system>
                     <code value="OBI"></code>
                     <display value="Optometrist license number"></display>
                  </coding>
               </type>
               <system value="http://www.umontreal.ca/labevents"></system>
               <value value="972963"></value>
               <assigner>
                  <reference value="10091724"></reference>
               </assigner>
            </identifier>
            <partOf>
               <reference value="21834046"></reference>
            </partOf>
            <status value="final"></status>
            <code>
               <text value="Red Blood Cells"></text>
            </code>
            <subject>
               <reference value="10091724"></reference>
            </subject>
            <effectiveDateTime value="2135-10-25T00:00:00+00:00"></effectiveDateTime>
            <valueQuantity>
               <value value="4.03"></value>
               <unit value="m/uL"></unit>
            </valueQuantity>
         </Observation>
      </resource>
      <request>
         <method value="POST"></method>
         <url value="Observation"></url>
      </request>
   </entry>
   <entry>
      <resource>
         <Observation xmlns="http://hl7.org/fhir">
            <meta>
               <profile value="https://www.umontreal.ca/fhir/core/modul-labor/StructureDefinition/ObservationLab"></profile>
            </meta>
            <identifier>
               <use value="usual"></use>
               <type>
                  <coding>
                     <system value="http://terminology.hl7.org/CodeSystem/v2-0203"></system>
                     <code value="OBI"></code>
                     <display value="Optometrist license number"></display>
                  </coding>
               </type>
               <system value="http://www.umontreal.ca/labevents"></system>
               <value value="972964"></value>
               <assigner>
                  <reference value="10091724"></reference>
               </assigner>
            </identifier>
            <partOf>
               <reference value="21834046"></reference>
            </partOf>
            <status value="final"></status>
            <code>
               <text value="White Blood Cells"></text>
            </code>
            <subject>
               <reference value="10091724"></reference>
            </subject>
            <effectiveDateTime value="2135-10-25T00:00:00+00:00"></effectiveDateTime>
            <valueQuantity>
               <value value="5.1"></value>
               <unit value="K/uL"></unit>
            </valueQuantity>
         </Observation>
      </resource>
      <request>
         <method value="POST"></method>
         <url value="Observation"></url>
      </request>
   </entry>
   <entry>
      <resource>
         <Observation xmlns="http://hl7.org/fhir">
            <meta>
               <profile value="https://www.umontreal.ca/fhir/core/modul-labor/StructureDefinition/ObservationLab"></profile>
            </meta>
            <identifier>
               <use value="usual"></use>
               <type>
                  <coding>
                     <system value="http://terminology.hl7.org/CodeSystem/v2-0203"></system>
                     <code value="OBI"></code>
                     <display value="Optometrist license number"></display>
                  </coding>
               </type>
               <system value="http://www.umontreal.ca/labevents"></system>
               <value value="972965"></value>
               <assigner>
                  <reference value="10091724"></reference>
               </assigner>
            </identifier>
            <partOf>
               <reference value="21834046"></reference>
            </partOf>
            <status value="final"></status>
            <code>
               <text value="RDW-SD"></text>
            </code>
            <subject>
               <reference value="10091724"></reference>
            </subject>
            <effectiveDateTime value="2135-10-25T00:00:00+00:00"></effectiveDateTime>
            <valueQuantity>
               <value value="45.1"></value>
               <unit value="fL"></unit>
            </valueQuantity>
         </Observation>
      </resource>
      <request>
         <method value="POST"></method>
         <url value="Observation"></url>
      </request>
   </entry>
   <entry>
      <resource>
         <Observation xmlns="http://hl7.org/fhir">
            <meta>
               <profile value="https://www.umontreal.ca/fhir/core/modul-labor/StructureDefinition/ObservationLab"></profile>
            </meta>
            <identifier>
               <use value="usual"></use>
               <type>
                  <coding>
                     <system value="http://terminology.hl7.org/CodeSystem/v2-0203"></system>
                     <code value="OBI"></code>
                     <display value="Optometrist license number"></display>
                  </coding>
               </type>
               <system value="http://www.umontreal.ca/labevents"></system>
               <value value="972966"></value>
               <assigner>
                  <reference value="10091724"></reference>
               </assigner>
            </identifier>
            <partOf>
               <reference value="21834046"></reference>
            </partOf>
            <status value="final"></status>
            <code>
               <text value="Anion Gap"></text>
            </code>
            <subject>
               <reference value="10091724"></reference>
            </subject>
            <effectiveDateTime value="2135-10-25T00:00:00+00:00"></effectiveDateTime>
            <valueQuantity>
               <value value="11.0"></value>
               <unit value="mEq/L"></unit>
            </valueQuantity>
            <note>
               <text value="New reference range as of ___."></text>
            </note>
         </Observation>
      </resource>
      <request>
         <method value="POST"></method>
         <url value="Observation"></url>
      </request>
   </entry>
   <entry>
      <resource>
         <Observation xmlns="http://hl7.org/fhir">
            <meta>
               <profile value="https://www.umontreal.ca/fhir/core/modul-labor/StructureDefinition/ObservationLab"></profile>
            </meta>
            <identifier>
               <use value="usual"></use>
               <type>
                  <coding>
                     <system value="http://terminology.hl7.org/CodeSystem/v2-0203"></system>
                     <code value="OBI"></code>
                     <display value="Optometrist license number"></display>
                  </coding>
               </type>
               <system value="http://www.umontreal.ca/labevents"></system>
               <value value="972967"></value>
               <assigner>
                  <reference value="10091724"></reference>
               </assigner>
            </identifier>
            <partOf>
               <reference value="21834046"></reference>
            </partOf>
            <status value="final"></status>
            <code>
               <text value="Bicarbonate"></text>
            </code>
            <subject>
               <reference value="10091724"></reference>
            </subject>
            <effectiveDateTime value="2135-10-25T00:00:00+00:00"></effectiveDateTime>
            <valueQuantity>
               <value value="25.0"></value>
               <unit value="mEq/L"></unit>
            </valueQuantity>
         </Observation>
      </resource>
      <request>
         <method value="POST"></method>
         <url value="Observation"></url>
      </request>
   </entry>
   <entry>
      <resource>
         <Observation xmlns="http://hl7.org/fhir">
            <meta>
               <profile value="https://www.umontreal.ca/fhir/core/modul-labor/StructureDefinition/ObservationLab"></profile>
            </meta>
            <identifier>
               <use value="usual"></use>
               <type>
                  <coding>
                     <system value="http://terminology.hl7.org/CodeSystem/v2-0203"></system>
                     <code value="OBI"></code>
                     <display value="Optometrist license number"></display>
                  </coding>
               </type>
               <system value="http://www.umontreal.ca/labevents"></system>
               <value value="972968"></value>
               <assigner>
                  <reference value="10091724"></reference>
               </assigner>
            </identifier>
            <partOf>
               <reference value="21834046"></reference>
            </partOf>
            <status value="final"></status>
            <code>
               <text value="Calcium, Total"></text>
            </code>
            <subject>
               <reference value="10091724"></reference>
            </subject>
            <effectiveDateTime value="2135-10-25T00:00:00+00:00"></effectiveDateTime>
            <valueQuantity>
               <value value="8.7"></value>
               <unit value="mg/dL"></unit>
            </valueQuantity>
         </Observation>
      </resource>
      <request>
         <method value="POST"></method>
         <url value="Observation"></url>
      </request>
   </entry>
   <entry>
      <resource>
         <Observation xmlns="http://hl7.org/fhir">
            <meta>
               <profile value="https://www.umontreal.ca/fhir/core/modul-labor/StructureDefinition/ObservationLab"></profile>
            </meta>
            <identifier>
               <use value="usual"></use>
               <type>
                  <coding>
                     <system value="http://terminology.hl7.org/CodeSystem/v2-0203"></system>
                     <code value="OBI"></code>
                     <display value="Optometrist license number"></display>
                  </coding>
               </type>
               <system value="http://www.umontreal.ca/labevents"></system>
               <value value="972969"></value>
               <assigner>
                  <reference value="10091724"></reference>
               </assigner>
            </identifier>
            <partOf>
               <reference value="21834046"></reference>
            </partOf>
            <status value="final"></status>
            <code>
               <text value="Chloride"></text>
            </code>
            <subject>
               <reference value="10091724"></reference>
            </subject>
            <effectiveDateTime value="2135-10-25T00:00:00+00:00"></effectiveDateTime>
            <valueQuantity>
               <value value="103.0"></value>
               <unit value="mEq/L"></unit>
            </valueQuantity>
         </Observation>
      </resource>
      <request>
         <method value="POST"></method>
         <url value="Observation"></url>
      </request>
   </entry>
   <entry>
      <resource>
         <Observation xmlns="http://hl7.org/fhir">
            <meta>
               <profile value="https://www.umontreal.ca/fhir/core/modul-labor/StructureDefinition/ObservationLab"></profile>
            </meta>
            <identifier>
               <use value="usual"></use>
               <type>
                  <coding>
                     <system value="http://terminology.hl7.org/CodeSystem/v2-0203"></system>
                     <code value="OBI"></code>
                     <display value="Optometrist license number"></display>
                  </coding>
               </type>
               <system value="http://www.umontreal.ca/labevents"></system>
               <value value="972970"></value>
               <assigner>
                  <reference value="10091724"></reference>
               </assigner>
            </identifier>
            <partOf>
               <reference value="21834046"></reference>
            </partOf>
            <status value="final"></status>
            <code>
               <text value="Creatinine"></text>
            </code>
            <subject>
               <reference value="10091724"></reference>
            </subject>
            <effectiveDateTime value="2135-10-25T00:00:00+00:00"></effectiveDateTime>
            <valueQuantity>
               <value value="1.1"></value>
               <unit value="mg/dL"></unit>
            </valueQuantity>
         </Observation>
      </resource>
      <request>
         <method value="POST"></method>
         <url value="Observation"></url>
      </request>
   </entry>
   <entry>
      <resource>
         <Observation xmlns="http://hl7.org/fhir">
            <meta>
               <profile value="https://www.umontreal.ca/fhir/core/modul-labor/StructureDefinition/ObservationLab"></profile>
            </meta>
            <identifier>
               <use value="usual"></use>
               <type>
                  <coding>
                     <system value="http://terminology.hl7.org/CodeSystem/v2-0203"></system>
                     <code value="OBI"></code>
                     <display value="Optometrist license number"></display>
                  </coding>
               </type>
               <system value="http://www.umontreal.ca/labevents"></system>
               <value value="972971"></value>
               <assigner>
                  <reference value="10091724"></reference>
               </assigner>
            </identifier>
            <partOf>
               <reference value="21834046"></reference>
            </partOf>
            <status value="final"></status>
            <code>
               <text value="Glucose"></text>
            </code>
            <subject>
               <reference value="10091724"></reference>
            </subject>
            <effectiveDateTime value="2135-10-25T00:00:00+00:00"></effectiveDateTime>
            <valueQuantity>
               <value value="209.0"></value>
               <unit value="mg/dL"></unit>
            </valueQuantity>
            <note>
               <text value="If fasting, 70-100 normal, &gt;125 provisional diabetes."></text>
            </note>
         </Observation>
      </resource>
      <request>
         <method value="POST"></method>
         <url value="Observation"></url>
      </request>
   </entry>
   <entry>
      <resource>
         <Observation xmlns="http://hl7.org/fhir">
            <meta>
               <profile value="https://www.umontreal.ca/fhir/core/modul-labor/StructureDefinition/ObservationLab"></profile>
            </meta>
            <identifier>
               <use value="usual"></use>
               <type>
                  <coding>
                     <system value="http://terminology.hl7.org/CodeSystem/v2-0203"></system>
                     <code value="OBI"></code>
                     <display value="Optometrist license number"></display>
                  </coding>
               </type>
               <system value="http://www.umontreal.ca/labevents"></system>
               <value value="972972"></value>
               <assigner>
                  <reference value="10091724"></reference>
               </assigner>
            </identifier>
            <partOf>
               <reference value="21834046"></reference>
            </partOf>
            <status value="final"></status>
            <code>
               <text value="H"></text>
            </code>
            <subject>
               <reference value="10091724"></reference>
            </subject>
            <effectiveDateTime value="2135-10-25T00:00:00+00:00"></effectiveDateTime>
            <valueQuantity>
               <value value="9.0"></value>
            </valueQuantity>
         </Observation>
      </resource>
      <request>
         <method value="POST"></method>
         <url value="Observation"></url>
      </request>
   </entry>
   <entry>
      <resource>
         <Observation xmlns="http://hl7.org/fhir">
            <meta>
               <profile value="https://www.umontreal.ca/fhir/core/modul-labor/StructureDefinition/ObservationLab"></profile>
            </meta>
            <identifier>
               <use value="usual"></use>
               <type>
                  <coding>
                     <system value="http://terminology.hl7.org/CodeSystem/v2-0203"></system>
                     <code value="OBI"></code>
                     <display value="Optometrist license number"></display>
                  </coding>
               </type>
               <system value="http://www.umontreal.ca/labevents"></system>
               <value value="972973"></value>
               <assigner>
                  <reference value="10091724"></reference>
               </assigner>
            </identifier>
            <partOf>
               <reference value="21834046"></reference>
            </partOf>
            <status value="final"></status>
            <code>
               <text value="I"></text>
            </code>
            <subject>
               <reference value="10091724"></reference>
            </subject>
            <effectiveDateTime value="2135-10-25T00:00:00+00:00"></effectiveDateTime>
            <valueQuantity>
               <value value="1.0"></value>
            </valueQuantity>
         </Observation>
      </resource>
      <request>
         <method value="POST"></method>
         <url value="Observation"></url>
      </request>
   </entry>
   <entry>
      <resource>
         <Observation xmlns="http://hl7.org/fhir">
            <meta>
               <profile value="https://www.umontreal.ca/fhir/core/modul-labor/StructureDefinition/ObservationLab"></profile>
            </meta>
            <identifier>
               <use value="usual"></use>
               <type>
                  <coding>
                     <system value="http://terminology.hl7.org/CodeSystem/v2-0203"></system>
                     <code value="OBI"></code>
                     <display value="Optometrist license number"></display>
                  </coding>
               </type>
               <system value="http://www.umontreal.ca/labevents"></system>
               <value value="972974"></value>
               <assigner>
                  <reference value="10091724"></reference>
               </assigner>
            </identifier>
            <partOf>
               <reference value="21834046"></reference>
            </partOf>
            <status value="final"></status>
            <code>
               <text value="Magnesium"></text>
            </code>
            <subject>
               <reference value="10091724"></reference>
            </subject>
            <effectiveDateTime value="2135-10-25T00:00:00+00:00"></effectiveDateTime>
            <valueQuantity>
               <value value="1.7"></value>
               <unit value="mg/dL"></unit>
            </valueQuantity>
         </Observation>
      </resource>
      <request>
         <method value="POST"></method>
         <url value="Observation"></url>
      </request>
   </entry>
   <entry>
      <resource>
         <Observation xmlns="http://hl7.org/fhir">
            <meta>
               <profile value="https://www.umontreal.ca/fhir/core/modul-labor/StructureDefinition/ObservationLab"></profile>
            </meta>
            <identifier>
               <use value="usual"></use>
               <type>
                  <coding>
                     <system value="http://terminology.hl7.org/CodeSystem/v2-0203"></system>
                     <code value="OBI"></code>
                     <display value="Optometrist license number"></display>
                  </coding>
               </type>
               <system value="http://www.umontreal.ca/labevents"></system>
               <value value="972975"></value>
               <assigner>
                  <reference value="10091724"></reference>
               </assigner>
            </identifier>
            <partOf>
               <reference value="21834046"></reference>
            </partOf>
            <status value="final"></status>
            <code>
               <text value="Phosphate"></text>
            </code>
            <subject>
               <reference value="10091724"></reference>
            </subject>
            <effectiveDateTime value="2135-10-25T00:00:00+00:00"></effectiveDateTime>
            <valueQuantity>
               <value value="2.3"></value>
               <unit value="mg/dL"></unit>
            </valueQuantity>
         </Observation>
      </resource>
      <request>
         <method value="POST"></method>
         <url value="Observation"></url>
      </request>
   </entry>
   <entry>
      <resource>
         <Observation xmlns="http://hl7.org/fhir">
            <meta>
               <profile value="https://www.umontreal.ca/fhir/core/modul-labor/StructureDefinition/ObservationLab"></profile>
            </meta>
            <identifier>
               <use value="usual"></use>
               <type>
                  <coding>
                     <system value="http://terminology.hl7.org/CodeSystem/v2-0203"></system>
                     <code value="OBI"></code>
                     <display value="Optometrist license number"></display>
                  </coding>
               </type>
               <system value="http://www.umontreal.ca/labevents"></system>
               <value value="972976"></value>
               <assigner>
                  <reference value="10091724"></reference>
               </assigner>
            </identifier>
            <partOf>
               <reference value="21834046"></reference>
            </partOf>
            <status value="final"></status>
            <code>
               <text value="Potassium"></text>
            </code>
            <subject>
               <reference value="10091724"></reference>
            </subject>
            <effectiveDateTime value="2135-10-25T00:00:00+00:00"></effectiveDateTime>
            <valueQuantity>
               <value value="4.7"></value>
               <unit value="mEq/L"></unit>
            </valueQuantity>
            <note>
               <text value="New reference range as of ___."></text>
            </note>
         </Observation>
      </resource>
      <request>
         <method value="POST"></method>
         <url value="Observation"></url>
      </request>
   </entry>
   <entry>
      <resource>
         <Observation xmlns="http://hl7.org/fhir">
            <meta>
               <profile value="https://www.umontreal.ca/fhir/core/modul-labor/StructureDefinition/ObservationLab"></profile>
            </meta>
            <identifier>
               <use value="usual"></use>
               <type>
                  <coding>
                     <system value="http://terminology.hl7.org/CodeSystem/v2-0203"></system>
                     <code value="OBI"></code>
                     <display value="Optometrist license number"></display>
                  </coding>
               </type>
               <system value="http://www.umontreal.ca/labevents"></system>
               <value value="972977"></value>
               <assigner>
                  <reference value="10091724"></reference>
               </assigner>
            </identifier>
            <partOf>
               <reference value="21834046"></reference>
            </partOf>
            <status value="final"></status>
            <code>
               <text value="Sodium"></text>
            </code>
            <subject>
               <reference value="10091724"></reference>
            </subject>
            <effectiveDateTime value="2135-10-25T00:00:00+00:00"></effectiveDateTime>
            <valueQuantity>
               <value value="139.0"></value>
               <unit value="mEq/L"></unit>
            </valueQuantity>
            <note>
               <text value="New reference range as of ___."></text>
            </note>
         </Observation>
      </resource>
      <request>
         <method value="POST"></method>
         <url value="Observation"></url>
      </request>
   </entry>
   <entry>
      <resource>
         <Observation xmlns="http://hl7.org/fhir">
            <meta>
               <profile value="https://www.umontreal.ca/fhir/core/modul-labor/StructureDefinition/ObservationLab"></profile>
            </meta>
            <identifier>
               <use value="usual"></use>
               <type>
                  <coding>
                     <system value="http://terminology.hl7.org/CodeSystem/v2-0203"></system>
                     <code value="OBI"></code>
                     <display value="Optometrist license number"></display>
                  </coding>
               </type>
               <system value="http://www.umontreal.ca/labevents"></system>
               <value value="972978"></value>
               <assigner>
                  <reference value="10091724"></reference>
               </assigner>
            </identifier>
            <partOf>
               <reference value="21834046"></reference>
            </partOf>
            <status value="final"></status>
            <code>
               <text value="Urea Nitrogen"></text>
            </code>
            <subject>
               <reference value="10091724"></reference>
            </subject>
            <effectiveDateTime value="2135-10-25T00:00:00+00:00"></effectiveDateTime>
            <valueQuantity>
               <value value="23.0"></value>
               <unit value="mg/dL"></unit>
            </valueQuantity>
         </Observation>
      </resource>
      <request>
         <method value="POST"></method>
         <url value="Observation"></url>
      </request>
   </entry>
   <entry>
      <resource>
         <Observation xmlns="http://hl7.org/fhir">
            <meta>
               <profile value="https://www.umontreal.ca/fhir/core/modul-labor/StructureDefinition/ObservationLab"></profile>
            </meta>
            <identifier>
               <use value="usual"></use>
               <type>
                  <coding>
                     <system value="http://terminology.hl7.org/CodeSystem/v2-0203"></system>
                     <code value="OBI"></code>
                     <display value="Optometrist license number"></display>
                  </coding>
               </type>
               <system value="http://www.umontreal.ca/labevents"></system>
               <value value="972979"></value>
               <assigner>
                  <reference value="10091724"></reference>
               </assigner>
            </identifier>
            <partOf>
               <reference value="21834046"></reference>
            </partOf>
            <status value="final"></status>
            <code>
               <text value="L"></text>
            </code>
            <subject>
               <reference value="10091724"></reference>
            </subject>
            <effectiveDateTime value="2135-10-25T00:00:00+00:00"></effectiveDateTime>
            <valueQuantity>
               <value value="7.0"></value>
            </valueQuantity>
         </Observation>
      </resource>
      <request>
         <method value="POST"></method>
         <url value="Observation"></url>
      </request>
   </entry>
</Bundle>