<Bundle xmlns="http://hl7.org/fhir">
   <type value="transaction"></type>
   <entry>
      <fullUrl value="urn:uuid:3aefab0a-394e-4a27-8e26-60ef83636410"></fullUrl>
      <resource>
         <Patient xmlns="http://hl7.org/fhir">
            <meta>
               <profile value="https://www.medizininformatik-initiative.de/fhir/core/modul-person/StructureDefinition/Patient"></profile>
            </meta>
            <text>
               <status value="generated"></status>
               <div xmlns="http://www.w3.org/1999/xhtml"> 
                  <div class="hapiHeaderText">10014652 
                     <b>PATIENT_10014652 </b> 
                  </div> 
                  <table class="hapiPropertyTable"> 
                     <tbody> 
                        <tr> 
                           <td>Identifier</td> 
                           <td>10014652</td> 
                        </tr> 
                        <tr> 
                           <td>Address</td> 
                           <td> 
                              <span>Musterstrasse 1 </span> 
                              <br></br> 
                              <span>Berlin </span> 
                              <span>DE </span> 
                           </td> 
                        </tr> 
                        <tr> 
                           <td>Date of birth</td> 
                           <td> 
                              <span>01 January 2066</span> 
                           </td> 
                        </tr> 
                     </tbody> 
                  </table> 
               </div>
            </text>
            <identifier>
               <use value="usual"></use>
               <type>
                  <coding>
                     <system value="http://terminology.hl7.org/CodeSystem/v2-0203"></system>
                     <code value="MR"></code>
                  </coding>
               </type>
               <system value="http://www.umontreal.ca/patients"></system>
               <value value="10014652"></value>
            </identifier>
            <name>
               <use value="official"></use>
               <family value="Patient_10014652">
                  <extension url="http://hl7.org/fhir/StructureDefinition/humanname-own-name">
                     <valueString value="Patient_10014652"></valueString>
                  </extension>
               </family>
               <given value="10014652"></given>
            </name>
            <gender value="female"></gender>
            <birthDate value="2066-01-01">
               <extension url="http://hl7.org/fhir/StructureDefinition/data-absent-reason">
                  <valueCode value="masked"></valueCode>
               </extension>
            </birthDate>
            <deceasedBoolean value="false"></deceasedBoolean>
            <address>
               <type value="postal"></type>
               <line value="Musterstrasse 1">
                  <extension url="http://hl7.org/fhir/StructureDefinition/iso21090-ADXP-streetName">
                     <valueString value="Musterstrasse"></valueString>
                  </extension>
                  <extension url="http://hl7.org/fhir/StructureDefinition/iso21090-ADXP-houseNumber">
                     <valueString value="1"></valueString>
                  </extension>
               </line>
               <city value="Berlin"></city>
               <postalCode value="12043"></postalCode>
               <country value="DE"></country>
            </address>
            <maritalStatus>
               <coding>
                  <system value="http://hl7.org/fhir/ValueSet/marital-status"></system>
                  <code value="M"></code>
                  <display value="Married"></display>
               </coding>
            </maritalStatus>
         </Patient>
      </resource>
      <request>
         <method value="POST"></method>
         <url value="Patient"></url>
         <ifNoneExist value="identifier=http://www.umontreal.ca/patients|10014652"></ifNoneExist>
      </request>
   </entry>
   <entry>
      <fullUrl value="urn:uuid:2cd27265-a906-45af-ac9d-9a51f1ac6aae"></fullUrl>
      <resource>
         <Organization xmlns="http://hl7.org/fhir">
            <identifier>
               <system value="http://www.umontreal.ca"></system>
               <value value="hospital"></value>
            </identifier>
            <type>
               <coding>
                  <system value="http://hl7.org/fhir/organization-type"></system>
                  <code value="prov"></code>
                  <display value="Healthcare Provider"></display>
               </coding>
            </type>
            <name value="IMI-Mimic Hospital"></name>
         </Organization>
      </resource>
      <request>
         <method value="POST"></method>
         <url value="Organization"></url>
         <ifNoneExist value="identifier=http://www.umontreal.ca|hospital"></ifNoneExist>
      </request>
   </entry>
   <entry>
      <fullUrl value="urn:uuid:a9ec73e8-2157-4ab4-a364-9b9c5e3400cd"></fullUrl>
      <resource>
         <Condition xmlns="http://hl7.org/fhir">
            <meta>
               <profile value="https://www.medizininformatik-initiative.de/fhir/core/modul-diagnose/StructureDefinition/Diagnose"></profile>
            </meta>
            <identifier>
               <system value="http://www.imi-mimic.de/diags"></system>
               <value value="null_4"></value>
            </identifier>
            <subject>
               <reference value="10014652"></reference>
            </subject>
            <recordedDate>
               <extension url="http://hl7.org/fhir/StructureDefinition/data-absent-reason">
                  <valueCode value="unknown"></valueCode>
               </extension>
            </recordedDate>
         </Condition>
      </resource>
      <request>
         <method value="POST"></method>
         <url value="Condition"></url>
         <ifNoneExist value="identifier=http://www.imi-mimic.de/diags|null_4"></ifNoneExist>
      </request>
   </entry>
   <entry>
      <fullUrl value="urn:uuid:1ba6a6fd-abb2-46f3-bc0a-989c1809ffbb"></fullUrl>
      <resource>
         <Condition xmlns="http://hl7.org/fhir">
            <meta>
               <profile value="https://www.medizininformatik-initiative.de/fhir/core/modul-diagnose/StructureDefinition/Diagnose"></profile>
            </meta>
            <identifier>
               <system value="http://www.imi-mimic.de/diags"></system>
               <value value="null_3"></value>
            </identifier>
            <subject>
               <reference value="10014652"></reference>
            </subject>
            <recordedDate>
               <extension url="http://hl7.org/fhir/StructureDefinition/data-absent-reason">
                  <valueCode value="unknown"></valueCode>
               </extension>
            </recordedDate>
         </Condition>
      </resource>
      <request>
         <method value="POST"></method>
         <url value="Condition"></url>
         <ifNoneExist value="identifier=http://www.imi-mimic.de/diags|null_3"></ifNoneExist>
      </request>
   </entry>
   <entry>
      <fullUrl value="urn:uuid:c36b6e82-121a-4127-8f74-d33d83c059ef"></fullUrl>
      <resource>
         <Condition xmlns="http://hl7.org/fhir">
            <meta>
               <profile value="https://www.medizininformatik-initiative.de/fhir/core/modul-diagnose/StructureDefinition/Diagnose"></profile>
            </meta>
            <identifier>
               <system value="http://www.imi-mimic.de/diags"></system>
               <value value="null_2"></value>
            </identifier>
            <subject>
               <reference value="10014652"></reference>
            </subject>
            <recordedDate>
               <extension url="http://hl7.org/fhir/StructureDefinition/data-absent-reason">
                  <valueCode value="unknown"></valueCode>
               </extension>
            </recordedDate>
         </Condition>
      </resource>
      <request>
         <method value="POST"></method>
         <url value="Condition"></url>
         <ifNoneExist value="identifier=http://www.imi-mimic.de/diags|null_2"></ifNoneExist>
      </request>
   </entry>
   <entry>
      <fullUrl value="urn:uuid:07beacec-b03f-4b76-bfea-5b15f7e7e9a9"></fullUrl>
      <resource>
         <Condition xmlns="http://hl7.org/fhir">
            <meta>
               <profile value="https://www.medizininformatik-initiative.de/fhir/core/modul-diagnose/StructureDefinition/Diagnose"></profile>
            </meta>
            <identifier>
               <system value="http://www.imi-mimic.de/diags"></system>
               <value value="null_1"></value>
            </identifier>
            <subject>
               <reference value="10014652"></reference>
            </subject>
            <recordedDate>
               <extension url="http://hl7.org/fhir/StructureDefinition/data-absent-reason">
                  <valueCode value="unknown"></valueCode>
               </extension>
            </recordedDate>
         </Condition>
      </resource>
      <request>
         <method value="POST"></method>
         <url value="Condition"></url>
         <ifNoneExist value="identifier=http://www.imi-mimic.de/diags|null_1"></ifNoneExist>
      </request>
   </entry>
   <entry>
      <fullUrl value="urn:uuid:ba39ff2c-7efa-4e55-933a-c369f9dffa4f"></fullUrl>
      <resource>
         <Procedure xmlns="http://hl7.org/fhir">
            <meta>
               <profile value="https://www.medizininformatik-initiative.de/fhir/core/modul-prozedur/StructureDefinition/Procedure"></profile>
            </meta>
            <identifier>
               <system value="http://www.imi-mimic.de/procs"></system>
               <value value="24285013_4"></value>
            </identifier>
            <status value="completed"></status>
            <subject>
               <reference value="10014652"></reference>
            </subject>
            <encounter>
               <reference value="24285013"></reference>
            </encounter>
         </Procedure>
      </resource>
      <request>
         <method value="POST"></method>
         <url value="Procedure"></url>
         <ifNoneExist value="identifier=http://www.imi-mimic.de/procs|24285013_4"></ifNoneExist>
      </request>
   </entry>
   <entry>
      <fullUrl value="urn:uuid:9e65e1d8-9007-4041-a886-7605c323c301"></fullUrl>
      <resource>
         <Procedure xmlns="http://hl7.org/fhir">
            <meta>
               <profile value="https://www.medizininformatik-initiative.de/fhir/core/modul-prozedur/StructureDefinition/Procedure"></profile>
            </meta>
            <identifier>
               <system value="http://www.imi-mimic.de/procs"></system>
               <value value="24285013_3"></value>
            </identifier>
            <status value="completed"></status>
            <subject>
               <reference value="10014652"></reference>
            </subject>
            <encounter>
               <reference value="24285013"></reference>
            </encounter>
         </Procedure>
      </resource>
      <request>
         <method value="POST"></method>
         <url value="Procedure"></url>
         <ifNoneExist value="identifier=http://www.imi-mimic.de/procs|24285013_3"></ifNoneExist>
      </request>
   </entry>
   <entry>
      <fullUrl value="urn:uuid:7bdcb814-f49c-4125-ba9a-ed60b71af892"></fullUrl>
      <resource>
         <Procedure xmlns="http://hl7.org/fhir">
            <meta>
               <profile value="https://www.medizininformatik-initiative.de/fhir/core/modul-prozedur/StructureDefinition/Procedure"></profile>
            </meta>
            <identifier>
               <system value="http://www.imi-mimic.de/procs"></system>
               <value value="24285013_2"></value>
            </identifier>
            <status value="completed"></status>
            <subject>
               <reference value="10014652"></reference>
            </subject>
            <encounter>
               <reference value="24285013"></reference>
            </encounter>
         </Procedure>
      </resource>
      <request>
         <method value="POST"></method>
         <url value="Procedure"></url>
         <ifNoneExist value="identifier=http://www.imi-mimic.de/procs|24285013_2"></ifNoneExist>
      </request>
   </entry>
   <entry>
      <fullUrl value="urn:uuid:7c4ad3a9-3689-41eb-a5a3-fac6995bd2b6"></fullUrl>
      <resource>
         <Procedure xmlns="http://hl7.org/fhir">
            <meta>
               <profile value="https://www.medizininformatik-initiative.de/fhir/core/modul-prozedur/StructureDefinition/Procedure"></profile>
            </meta>
            <identifier>
               <system value="http://www.imi-mimic.de/procs"></system>
               <value value="24285013_1"></value>
            </identifier>
            <status value="completed"></status>
            <subject>
               <reference value="10014652"></reference>
            </subject>
            <encounter>
               <reference value="24285013"></reference>
            </encounter>
         </Procedure>
      </resource>
      <request>
         <method value="POST"></method>
         <url value="Procedure"></url>
         <ifNoneExist value="identifier=http://www.imi-mimic.de/procs|24285013_1"></ifNoneExist>
      </request>
   </entry>
   <entry>
      <fullUrl value="urn:uuid:74b6b06e-2353-46f7-beaa-b534039bac18"></fullUrl>
      <resource>
         <Location xmlns="http://hl7.org/fhir">
            <identifier>
               <system value="http://www.imi-mimic.de/location/Emergency_Department_Observation"></system>
               <value value="Emergency Department Observation"></value>
            </identifier>
            <name value="Emergency Department Observation"></name>
            <type>
               <coding>
                  <system value="http://terminology.hl7.org/ValueSet/v3-ServiceDeliveryLocationRoleType"></system>
                  <code value="_ServiceDeliveryLocationRoleType"></code>
                  <display value="ServiceDeliveryLocationRoleType"></display>
               </coding>
            </type>
            <physicalType>
               <coding>
                  <system value="http://terminology.hl7.org/CodeSystem/location-physical-type"></system>
                  <code value="wa"></code>
                  <display value="Ward"></display>
               </coding>
            </physicalType>
            <managingOrganization>
               <reference value="urn:uuid:6e027ea7-33aa-4009-845a-6353523d8b0f"></reference>
            </managingOrganization>
         </Location>
      </resource>
      <request>
         <method value="POST"></method>
         <url value="Location"></url>
         <ifNoneExist value="identifier=http://www.imi-mimic.de/location/Emergency_Department_Observation|Emergency Department Observation"></ifNoneExist>
      </request>
   </entry>
   <entry>
      <fullUrl value="urn:uuid:2e9f6dc1-ff0d-471d-9389-223e9894a072"></fullUrl>
      <resource>
         <Encounter xmlns="http://hl7.org/fhir">
            <status value="finished"></status>
            <class>
               <system value="https://www.medizininformatik-initiative.de/fhir/core/CodeSystem/EncounterClassAdditionsDE"></system>
               <code value="_ActEncounterCode"></code>
               <display value="ActEncounterCode"></display>
            </class>
            <period>
               <start value="2144-06-12T00:00:00+00:00"></start>
               <end value="2144-06-12T00:00:00+00:00"></end>
            </period>
            <location>
               <location>
                  <reference value="urn:uuid:74b6b06e-2353-46f7-beaa-b534039bac18"></reference>
               </location>
               <status value="completed"></status>
               <physicalType>
                  <coding>
                     <system value="http://terminology.hl7.org/CodeSystem/location-physical-type"></system>
                     <code value="wa"></code>
                     <display value="Ward"></display>
                  </coding>
               </physicalType>
               <period>
                  <start value="2144-06-12T00:00:00+00:00"></start>
                  <end value="2144-06-12T00:00:00+00:00"></end>
               </period>
            </location>
            <serviceProvider>
               <reference value="urn:uuid:6e027ea7-33aa-4009-845a-6353523d8b0f"></reference>
            </serviceProvider>
            <partOf>
               <reference value="urn:uuid:51b2bdc0-7f38-41ff-9a1b-0af35b508e2b"></reference>
            </partOf>
         </Encounter>
      </resource>
      <request>
         <method value="POST"></method>
         <url value="Encounter"></url>
         <ifNoneExist value="identifier=null|null"></ifNoneExist>
      </request>
   </entry>
   <entry>
      <fullUrl value="urn:uuid:4338d3a9-d48a-46dd-bfd8-6fd8722080b0"></fullUrl>
      <resource>
         <Location xmlns="http://hl7.org/fhir">
            <identifier>
               <system value="http://www.imi-mimic.de/location/Unknown"></system>
               <value value="Unknown"></value>
            </identifier>
            <name value="Unknown"></name>
            <type>
               <coding>
                  <system value="http://terminology.hl7.org/ValueSet/v3-ServiceDeliveryLocationRoleType"></system>
                  <code value="_ServiceDeliveryLocationRoleType"></code>
                  <display value="ServiceDeliveryLocationRoleType"></display>
               </coding>
            </type>
            <physicalType>
               <coding>
                  <system value="http://terminology.hl7.org/CodeSystem/location-physical-type"></system>
                  <code value="wa"></code>
                  <display value="Ward"></display>
               </coding>
            </physicalType>
            <managingOrganization>
               <reference value="urn:uuid:36ad2032-0307-431e-be03-410e49e859e4"></reference>
            </managingOrganization>
         </Location>
      </resource>
      <request>
         <method value="POST"></method>
         <url value="Location"></url>
         <ifNoneExist value="identifier=http://www.imi-mimic.de/location/Unknown|Unknown"></ifNoneExist>
      </request>
   </entry>
   <entry>
      <fullUrl value="urn:uuid:295effde-cf5c-4917-9d9c-5b8552bda298"></fullUrl>
      <resource>
         <Encounter xmlns="http://hl7.org/fhir">
            <status value="finished"></status>
            <class>
               <system value="https://www.medizininformatik-initiative.de/fhir/core/CodeSystem/EncounterClassAdditionsDE"></system>
               <code value="_ActEncounterCode"></code>
               <display value="ActEncounterCode"></display>
            </class>
            <period>
               <start value="2144-06-12T00:00:00+00:00"></start>
            </period>
            <location>
               <location>
                  <reference value="urn:uuid:4338d3a9-d48a-46dd-bfd8-6fd8722080b0"></reference>
               </location>
               <status value="completed"></status>
               <physicalType>
                  <coding>
                     <system value="http://terminology.hl7.org/CodeSystem/location-physical-type"></system>
                     <code value="wa"></code>
                     <display value="Ward"></display>
                  </coding>
               </physicalType>
               <period>
                  <start value="2144-06-12T00:00:00+00:00"></start>
               </period>
            </location>
            <serviceProvider>
               <reference value="urn:uuid:36ad2032-0307-431e-be03-410e49e859e4"></reference>
            </serviceProvider>
            <partOf>
               <reference value="urn:uuid:51b2bdc0-7f38-41ff-9a1b-0af35b508e2b"></reference>
            </partOf>
         </Encounter>
      </resource>
      <request>
         <method value="POST"></method>
         <url value="Encounter"></url>
         <ifNoneExist value="identifier=null|null"></ifNoneExist>
      </request>
   </entry>
   <entry>
      <fullUrl value="urn:uuid:02cc4162-33a3-4ed3-848f-0ebb7ab06076"></fullUrl>
      <resource>
         <Location xmlns="http://hl7.org/fhir">
            <identifier>
               <system value="http://www.imi-mimic.de/location/Emergency_Department"></system>
               <value value="Emergency Department"></value>
            </identifier>
            <name value="Emergency Department"></name>
            <type>
               <coding>
                  <system value="http://terminology.hl7.org/ValueSet/v3-ServiceDeliveryLocationRoleType"></system>
                  <code value="_ServiceDeliveryLocationRoleType"></code>
                  <display value="ServiceDeliveryLocationRoleType"></display>
               </coding>
            </type>
            <physicalType>
               <coding>
                  <system value="http://terminology.hl7.org/CodeSystem/location-physical-type"></system>
                  <code value="wa"></code>
                  <display value="Ward"></display>
               </coding>
            </physicalType>
            <managingOrganization>
               <reference value="urn:uuid:3e5cb101-0673-4bb5-85dd-9e4192001f7c"></reference>
            </managingOrganization>
         </Location>
      </resource>
      <request>
         <method value="POST"></method>
         <url value="Location"></url>
         <ifNoneExist value="identifier=http://www.imi-mimic.de/location/Emergency_Department|Emergency Department"></ifNoneExist>
      </request>
   </entry>
   <entry>
      <fullUrl value="urn:uuid:8e012949-3666-4e3e-82ba-63b24c22993c"></fullUrl>
      <resource>
         <Encounter xmlns="http://hl7.org/fhir">
            <status value="finished"></status>
            <class>
               <system value="https://www.medizininformatik-initiative.de/fhir/core/CodeSystem/EncounterClassAdditionsDE"></system>
               <code value="_ActEncounterCode"></code>
               <display value="ActEncounterCode"></display>
            </class>
            <period>
               <start value="2144-06-11T00:00:00+00:00"></start>
               <end value="2144-06-12T00:00:00+00:00"></end>
            </period>
            <location>
               <location>
                  <reference value="urn:uuid:02cc4162-33a3-4ed3-848f-0ebb7ab06076"></reference>
               </location>
               <status value="completed"></status>
               <physicalType>
                  <coding>
                     <system value="http://terminology.hl7.org/CodeSystem/location-physical-type"></system>
                     <code value="wa"></code>
                     <display value="Ward"></display>
                  </coding>
               </physicalType>
               <period>
                  <start value="2144-06-11T00:00:00+00:00"></start>
                  <end value="2144-06-12T00:00:00+00:00"></end>
               </period>
            </location>
            <serviceProvider>
               <reference value="urn:uuid:3e5cb101-0673-4bb5-85dd-9e4192001f7c"></reference>
            </serviceProvider>
            <partOf>
               <reference value="urn:uuid:51b2bdc0-7f38-41ff-9a1b-0af35b508e2b"></reference>
            </partOf>
         </Encounter>
      </resource>
      <request>
         <method value="POST"></method>
         <url value="Encounter"></url>
         <ifNoneExist value="identifier=null|null"></ifNoneExist>
      </request>
   </entry>
   <entry>
      <fullUrl value="urn:uuid:51b2bdc0-7f38-41ff-9a1b-0af35b508e2b"></fullUrl>
      <resource>
         <Encounter xmlns="http://hl7.org/fhir">
            <meta>
               <profile value="https://www.umontreal.ca/fhir/core/modul-fall/StructureDefinition/KontaktGesundheitseinrichtung"></profile>
            </meta>
            <identifier>
               <type>
                  <coding>
                     <system value="http://terminology.hl7.org/CodeSystem/v2-0203"></system>
                     <code value="VN"></code>
                  </coding>
               </type>
               <system value="http://www.umontreal.ca/encs"></system>
               <value value="24285013"></value>
            </identifier>
            <status value="finished"></status>
            <class>
               <system value="https://www.umontreal.ca/fhir/core/ValueSet/EncounterClassDE"></system>
               <code value="N"></code>
               <display value="Segment nicht anwendbar"></display>
            </class>
            <period>
               <start value="2144-06-11T00:00:00+00:00"></start>
               <end value="2144-06-12T00:00:00+00:00"></end>
            </period>
            <diagnosis>
               <condition>
                  <reference value="urn:uuid:a9ec73e8-2157-4ab4-a364-9b9c5e3400cd"></reference>
               </condition>
               <rank value="4"></rank>
            </diagnosis>
            <diagnosis>
               <condition>
                  <reference value="urn:uuid:1ba6a6fd-abb2-46f3-bc0a-989c1809ffbb"></reference>
               </condition>
               <rank value="3"></rank>
            </diagnosis>
            <diagnosis>
               <condition>
                  <reference value="urn:uuid:c36b6e82-121a-4127-8f74-d33d83c059ef"></reference>
               </condition>
               <rank value="2"></rank>
            </diagnosis>
            <diagnosis>
               <condition>
                  <reference value="urn:uuid:07beacec-b03f-4b76-bfea-5b15f7e7e9a9"></reference>
               </condition>
               <rank value="1"></rank>
            </diagnosis>
            <diagnosis>
               <condition>
                  <reference value="urn:uuid:ba39ff2c-7efa-4e55-933a-c369f9dffa4f"></reference>
               </condition>
               <rank value="4"></rank>
            </diagnosis>
            <diagnosis>
               <condition>
                  <reference value="urn:uuid:9e65e1d8-9007-4041-a886-7605c323c301"></reference>
               </condition>
               <rank value="3"></rank>
            </diagnosis>
            <diagnosis>
               <condition>
                  <reference value="urn:uuid:7bdcb814-f49c-4125-ba9a-ed60b71af892"></reference>
               </condition>
               <rank value="2"></rank>
            </diagnosis>
            <diagnosis>
               <condition>
                  <reference value="urn:uuid:7c4ad3a9-3689-41eb-a5a3-fac6995bd2b6"></reference>
               </condition>
               <rank value="1"></rank>
            </diagnosis>
            <hospitalization>
               <dischargeDisposition>
                  <coding>
                     <system value="https://www.umontreal.ca/fhir/core/modul-fall/CodeSystem/Entlassungsgrund"></system>
                     <code value="039"></code>
                     <display value="Behandlung aus sonstigen Gruenden beendet, keine Angabe"></display>
                  </coding>
               </dischargeDisposition>
            </hospitalization>
         </Encounter>
      </resource>
      <request>
         <method value="POST"></method>
         <url value="Encounter"></url>
         <ifNoneExist value="identifier=http://www.umontreal.ca/encs|24285013"></ifNoneExist>
      </request>
   </entry>
</Bundle>