<Bundle xmlns="http://hl7.org/fhir">
   <type value="transaction"></type>
   <entry>
      <fullUrl value="urn:uuid:bed4e180-d92c-414a-836e-df0d30aa0562"></fullUrl>
      <resource>
         <Patient xmlns="http://hl7.org/fhir">
            <meta>
               <profile value="https://www.medizininformatik-initiative.de/fhir/core/modul-person/StructureDefinition/Patient"></profile>
            </meta>
            <text>
               <status value="generated"></status>
               <div xmlns="http://www.w3.org/1999/xhtml"> 
                  <div class="hapiHeaderText">10050755 
                     <b>PATIENT_10050755 </b> 
                  </div> 
                  <table class="hapiPropertyTable"> 
                     <tbody> 
                        <tr> 
                           <td>Identifier</td> 
                           <td>10050755</td> 
                        </tr> 
                        <tr> 
                           <td>Address</td> 
                           <td> 
                              <span>Musterstrasse 1 </span> 
                              <br></br> 
                              <span>Berlin </span> 
                              <span>DE </span> 
                           </td> 
                        </tr> 
                        <tr> 
                           <td>Date of birth</td> 
                           <td> 
                              <span>01 January 2049</span> 
                           </td> 
                        </tr> 
                     </tbody> 
                  </table> 
               </div>
            </text>
            <identifier>
               <use value="usual"></use>
               <type>
                  <coding>
                     <system value="http://terminology.hl7.org/CodeSystem/v2-0203"></system>
                     <code value="MR"></code>
                  </coding>
               </type>
               <system value="http://www.umontreal.ca/patients"></system>
               <value value="10050755"></value>
            </identifier>
            <name>
               <use value="official"></use>
               <family value="Patient_10050755">
                  <extension url="http://hl7.org/fhir/StructureDefinition/humanname-own-name">
                     <valueString value="Patient_10050755"></valueString>
                  </extension>
               </family>
               <given value="10050755"></given>
            </name>
            <gender value="male"></gender>
            <birthDate value="2049-01-01">
               <extension url="http://hl7.org/fhir/StructureDefinition/data-absent-reason">
                  <valueCode value="masked"></valueCode>
               </extension>
            </birthDate>
            <deceasedDateTime value="2134-02-26T00:00:00+00:00"></deceasedDateTime>
            <address>
               <type value="postal"></type>
               <line value="Musterstrasse 1">
                  <extension url="http://hl7.org/fhir/StructureDefinition/iso21090-ADXP-streetName">
                     <valueString value="Musterstrasse"></valueString>
                  </extension>
                  <extension url="http://hl7.org/fhir/StructureDefinition/iso21090-ADXP-houseNumber">
                     <valueString value="1"></valueString>
                  </extension>
               </line>
               <city value="Berlin"></city>
               <postalCode value="12043"></postalCode>
               <country value="DE"></country>
            </address>
            <maritalStatus>
               <coding>
                  <system value="http://hl7.org/fhir/ValueSet/marital-status"></system>
                  <code value="M"></code>
                  <display value="Married"></display>
               </coding>
            </maritalStatus>
         </Patient>
      </resource>
      <request>
         <method value="POST"></method>
         <url value="Patient"></url>
         <ifNoneExist value="identifier=http://www.umontreal.ca/patients|10050755"></ifNoneExist>
      </request>
   </entry>
   <entry>
      <fullUrl value="urn:uuid:2cd27265-a906-45af-ac9d-9a51f1ac6aae"></fullUrl>
      <resource>
         <Organization xmlns="http://hl7.org/fhir">
            <identifier>
               <system value="http://www.umontreal.ca"></system>
               <value value="hospital"></value>
            </identifier>
            <type>
               <coding>
                  <system value="http://hl7.org/fhir/organization-type"></system>
                  <code value="prov"></code>
                  <display value="Healthcare Provider"></display>
               </coding>
            </type>
            <name value="IMI-Mimic Hospital"></name>
         </Organization>
      </resource>
      <request>
         <method value="POST"></method>
         <url value="Organization"></url>
         <ifNoneExist value="identifier=http://www.umontreal.ca|hospital"></ifNoneExist>
      </request>
   </entry>
   <entry>
      <fullUrl value="urn:uuid:bd7d11b1-7c68-45b1-9297-47077d3d3ab1"></fullUrl>
      <resource>
         <Condition xmlns="http://hl7.org/fhir">
            <meta>
               <profile value="https://www.medizininformatik-initiative.de/fhir/core/modul-diagnose/StructureDefinition/Diagnose"></profile>
            </meta>
            <identifier>
               <system value="http://www.imi-mimic.de/diags"></system>
               <value value="null_14"></value>
            </identifier>
            <subject>
               <reference value="10050755"></reference>
            </subject>
            <recordedDate>
               <extension url="http://hl7.org/fhir/StructureDefinition/data-absent-reason">
                  <valueCode value="unknown"></valueCode>
               </extension>
            </recordedDate>
         </Condition>
      </resource>
      <request>
         <method value="POST"></method>
         <url value="Condition"></url>
         <ifNoneExist value="identifier=http://www.imi-mimic.de/diags|null_14"></ifNoneExist>
      </request>
   </entry>
   <entry>
      <fullUrl value="urn:uuid:39a6c3bd-6f3f-4662-a61c-96cfef80585c"></fullUrl>
      <resource>
         <Condition xmlns="http://hl7.org/fhir">
            <meta>
               <profile value="https://www.medizininformatik-initiative.de/fhir/core/modul-diagnose/StructureDefinition/Diagnose"></profile>
            </meta>
            <identifier>
               <system value="http://www.imi-mimic.de/diags"></system>
               <value value="null_13"></value>
            </identifier>
            <subject>
               <reference value="10050755"></reference>
            </subject>
            <recordedDate>
               <extension url="http://hl7.org/fhir/StructureDefinition/data-absent-reason">
                  <valueCode value="unknown"></valueCode>
               </extension>
            </recordedDate>
         </Condition>
      </resource>
      <request>
         <method value="POST"></method>
         <url value="Condition"></url>
         <ifNoneExist value="identifier=http://www.imi-mimic.de/diags|null_13"></ifNoneExist>
      </request>
   </entry>
   <entry>
      <fullUrl value="urn:uuid:42b9e001-2f7c-4565-a864-c9caf00a4dab"></fullUrl>
      <resource>
         <Condition xmlns="http://hl7.org/fhir">
            <meta>
               <profile value="https://www.medizininformatik-initiative.de/fhir/core/modul-diagnose/StructureDefinition/Diagnose"></profile>
            </meta>
            <identifier>
               <system value="http://www.imi-mimic.de/diags"></system>
               <value value="null_12"></value>
            </identifier>
            <subject>
               <reference value="10050755"></reference>
            </subject>
            <recordedDate>
               <extension url="http://hl7.org/fhir/StructureDefinition/data-absent-reason">
                  <valueCode value="unknown"></valueCode>
               </extension>
            </recordedDate>
         </Condition>
      </resource>
      <request>
         <method value="POST"></method>
         <url value="Condition"></url>
         <ifNoneExist value="identifier=http://www.imi-mimic.de/diags|null_12"></ifNoneExist>
      </request>
   </entry>
   <entry>
      <fullUrl value="urn:uuid:55b99376-dcf0-4066-ab5a-f3ba6851874e"></fullUrl>
      <resource>
         <Condition xmlns="http://hl7.org/fhir">
            <meta>
               <profile value="https://www.medizininformatik-initiative.de/fhir/core/modul-diagnose/StructureDefinition/Diagnose"></profile>
            </meta>
            <identifier>
               <system value="http://www.imi-mimic.de/diags"></system>
               <value value="null_11"></value>
            </identifier>
            <subject>
               <reference value="10050755"></reference>
            </subject>
            <recordedDate>
               <extension url="http://hl7.org/fhir/StructureDefinition/data-absent-reason">
                  <valueCode value="unknown"></valueCode>
               </extension>
            </recordedDate>
         </Condition>
      </resource>
      <request>
         <method value="POST"></method>
         <url value="Condition"></url>
         <ifNoneExist value="identifier=http://www.imi-mimic.de/diags|null_11"></ifNoneExist>
      </request>
   </entry>
   <entry>
      <fullUrl value="urn:uuid:d7af9ad2-dcd2-4a50-8019-2d91d7b78563"></fullUrl>
      <resource>
         <Condition xmlns="http://hl7.org/fhir">
            <meta>
               <profile value="https://www.medizininformatik-initiative.de/fhir/core/modul-diagnose/StructureDefinition/Diagnose"></profile>
            </meta>
            <identifier>
               <system value="http://www.imi-mimic.de/diags"></system>
               <value value="null_10"></value>
            </identifier>
            <subject>
               <reference value="10050755"></reference>
            </subject>
            <recordedDate>
               <extension url="http://hl7.org/fhir/StructureDefinition/data-absent-reason">
                  <valueCode value="unknown"></valueCode>
               </extension>
            </recordedDate>
         </Condition>
      </resource>
      <request>
         <method value="POST"></method>
         <url value="Condition"></url>
         <ifNoneExist value="identifier=http://www.imi-mimic.de/diags|null_10"></ifNoneExist>
      </request>
   </entry>
   <entry>
      <fullUrl value="urn:uuid:f0f240cf-bb53-4104-8707-1354802d00cf"></fullUrl>
      <resource>
         <Condition xmlns="http://hl7.org/fhir">
            <meta>
               <profile value="https://www.medizininformatik-initiative.de/fhir/core/modul-diagnose/StructureDefinition/Diagnose"></profile>
            </meta>
            <identifier>
               <system value="http://www.imi-mimic.de/diags"></system>
               <value value="null_9"></value>
            </identifier>
            <subject>
               <reference value="10050755"></reference>
            </subject>
            <recordedDate>
               <extension url="http://hl7.org/fhir/StructureDefinition/data-absent-reason">
                  <valueCode value="unknown"></valueCode>
               </extension>
            </recordedDate>
         </Condition>
      </resource>
      <request>
         <method value="POST"></method>
         <url value="Condition"></url>
         <ifNoneExist value="identifier=http://www.imi-mimic.de/diags|null_9"></ifNoneExist>
      </request>
   </entry>
   <entry>
      <fullUrl value="urn:uuid:442c79be-c464-4d6c-a186-03aba888486f"></fullUrl>
      <resource>
         <Condition xmlns="http://hl7.org/fhir">
            <meta>
               <profile value="https://www.medizininformatik-initiative.de/fhir/core/modul-diagnose/StructureDefinition/Diagnose"></profile>
            </meta>
            <identifier>
               <system value="http://www.imi-mimic.de/diags"></system>
               <value value="null_8"></value>
            </identifier>
            <subject>
               <reference value="10050755"></reference>
            </subject>
            <recordedDate>
               <extension url="http://hl7.org/fhir/StructureDefinition/data-absent-reason">
                  <valueCode value="unknown"></valueCode>
               </extension>
            </recordedDate>
         </Condition>
      </resource>
      <request>
         <method value="POST"></method>
         <url value="Condition"></url>
         <ifNoneExist value="identifier=http://www.imi-mimic.de/diags|null_8"></ifNoneExist>
      </request>
   </entry>
   <entry>
      <fullUrl value="urn:uuid:b36a84ba-df4d-44f9-ae12-2d55a3a2f4e8"></fullUrl>
      <resource>
         <Condition xmlns="http://hl7.org/fhir">
            <meta>
               <profile value="https://www.medizininformatik-initiative.de/fhir/core/modul-diagnose/StructureDefinition/Diagnose"></profile>
            </meta>
            <identifier>
               <system value="http://www.imi-mimic.de/diags"></system>
               <value value="null_7"></value>
            </identifier>
            <subject>
               <reference value="10050755"></reference>
            </subject>
            <recordedDate>
               <extension url="http://hl7.org/fhir/StructureDefinition/data-absent-reason">
                  <valueCode value="unknown"></valueCode>
               </extension>
            </recordedDate>
         </Condition>
      </resource>
      <request>
         <method value="POST"></method>
         <url value="Condition"></url>
         <ifNoneExist value="identifier=http://www.imi-mimic.de/diags|null_7"></ifNoneExist>
      </request>
   </entry>
   <entry>
      <fullUrl value="urn:uuid:38da0eb7-ed0d-46e1-91b5-a68f7a19fafd"></fullUrl>
      <resource>
         <Condition xmlns="http://hl7.org/fhir">
            <meta>
               <profile value="https://www.medizininformatik-initiative.de/fhir/core/modul-diagnose/StructureDefinition/Diagnose"></profile>
            </meta>
            <identifier>
               <system value="http://www.imi-mimic.de/diags"></system>
               <value value="null_6"></value>
            </identifier>
            <subject>
               <reference value="10050755"></reference>
            </subject>
            <recordedDate>
               <extension url="http://hl7.org/fhir/StructureDefinition/data-absent-reason">
                  <valueCode value="unknown"></valueCode>
               </extension>
            </recordedDate>
         </Condition>
      </resource>
      <request>
         <method value="POST"></method>
         <url value="Condition"></url>
         <ifNoneExist value="identifier=http://www.imi-mimic.de/diags|null_6"></ifNoneExist>
      </request>
   </entry>
   <entry>
      <fullUrl value="urn:uuid:235f3cef-c120-47c5-b970-ab932b9ae9cb"></fullUrl>
      <resource>
         <Condition xmlns="http://hl7.org/fhir">
            <meta>
               <profile value="https://www.medizininformatik-initiative.de/fhir/core/modul-diagnose/StructureDefinition/Diagnose"></profile>
            </meta>
            <identifier>
               <system value="http://www.imi-mimic.de/diags"></system>
               <value value="null_5"></value>
            </identifier>
            <subject>
               <reference value="10050755"></reference>
            </subject>
            <recordedDate>
               <extension url="http://hl7.org/fhir/StructureDefinition/data-absent-reason">
                  <valueCode value="unknown"></valueCode>
               </extension>
            </recordedDate>
         </Condition>
      </resource>
      <request>
         <method value="POST"></method>
         <url value="Condition"></url>
         <ifNoneExist value="identifier=http://www.imi-mimic.de/diags|null_5"></ifNoneExist>
      </request>
   </entry>
   <entry>
      <fullUrl value="urn:uuid:1ec182ab-193a-4b5e-9ab8-4abe95fe586e"></fullUrl>
      <resource>
         <Condition xmlns="http://hl7.org/fhir">
            <meta>
               <profile value="https://www.medizininformatik-initiative.de/fhir/core/modul-diagnose/StructureDefinition/Diagnose"></profile>
            </meta>
            <identifier>
               <system value="http://www.imi-mimic.de/diags"></system>
               <value value="null_4"></value>
            </identifier>
            <subject>
               <reference value="10050755"></reference>
            </subject>
            <recordedDate>
               <extension url="http://hl7.org/fhir/StructureDefinition/data-absent-reason">
                  <valueCode value="unknown"></valueCode>
               </extension>
            </recordedDate>
         </Condition>
      </resource>
      <request>
         <method value="POST"></method>
         <url value="Condition"></url>
         <ifNoneExist value="identifier=http://www.imi-mimic.de/diags|null_4"></ifNoneExist>
      </request>
   </entry>
   <entry>
      <fullUrl value="urn:uuid:61486eda-a9b1-478d-9cc0-979bdbfa45a7"></fullUrl>
      <resource>
         <Condition xmlns="http://hl7.org/fhir">
            <meta>
               <profile value="https://www.medizininformatik-initiative.de/fhir/core/modul-diagnose/StructureDefinition/Diagnose"></profile>
            </meta>
            <identifier>
               <system value="http://www.imi-mimic.de/diags"></system>
               <value value="null_3"></value>
            </identifier>
            <subject>
               <reference value="10050755"></reference>
            </subject>
            <recordedDate>
               <extension url="http://hl7.org/fhir/StructureDefinition/data-absent-reason">
                  <valueCode value="unknown"></valueCode>
               </extension>
            </recordedDate>
         </Condition>
      </resource>
      <request>
         <method value="POST"></method>
         <url value="Condition"></url>
         <ifNoneExist value="identifier=http://www.imi-mimic.de/diags|null_3"></ifNoneExist>
      </request>
   </entry>
   <entry>
      <fullUrl value="urn:uuid:6e2a50bb-c203-4cc0-94f8-6c595d2670a1"></fullUrl>
      <resource>
         <Condition xmlns="http://hl7.org/fhir">
            <meta>
               <profile value="https://www.medizininformatik-initiative.de/fhir/core/modul-diagnose/StructureDefinition/Diagnose"></profile>
            </meta>
            <identifier>
               <system value="http://www.imi-mimic.de/diags"></system>
               <value value="null_2"></value>
            </identifier>
            <subject>
               <reference value="10050755"></reference>
            </subject>
            <recordedDate>
               <extension url="http://hl7.org/fhir/StructureDefinition/data-absent-reason">
                  <valueCode value="unknown"></valueCode>
               </extension>
            </recordedDate>
         </Condition>
      </resource>
      <request>
         <method value="POST"></method>
         <url value="Condition"></url>
         <ifNoneExist value="identifier=http://www.imi-mimic.de/diags|null_2"></ifNoneExist>
      </request>
   </entry>
   <entry>
      <fullUrl value="urn:uuid:cfbaa01f-0213-4e42-b74b-d2fd0508ac7e"></fullUrl>
      <resource>
         <Condition xmlns="http://hl7.org/fhir">
            <meta>
               <profile value="https://www.medizininformatik-initiative.de/fhir/core/modul-diagnose/StructureDefinition/Diagnose"></profile>
            </meta>
            <identifier>
               <system value="http://www.imi-mimic.de/diags"></system>
               <value value="null_1"></value>
            </identifier>
            <subject>
               <reference value="10050755"></reference>
            </subject>
            <recordedDate>
               <extension url="http://hl7.org/fhir/StructureDefinition/data-absent-reason">
                  <valueCode value="unknown"></valueCode>
               </extension>
            </recordedDate>
         </Condition>
      </resource>
      <request>
         <method value="POST"></method>
         <url value="Condition"></url>
         <ifNoneExist value="identifier=http://www.imi-mimic.de/diags|null_1"></ifNoneExist>
      </request>
   </entry>
   <entry>
      <fullUrl value="urn:uuid:96b03a91-69ea-4715-829a-9ab98a79dbef"></fullUrl>
      <resource>
         <Procedure xmlns="http://hl7.org/fhir">
            <meta>
               <profile value="https://www.medizininformatik-initiative.de/fhir/core/modul-prozedur/StructureDefinition/Procedure"></profile>
            </meta>
            <identifier>
               <system value="http://www.imi-mimic.de/procs"></system>
               <value value="20050796_2"></value>
            </identifier>
            <status value="completed"></status>
            <subject>
               <reference value="10050755"></reference>
            </subject>
            <encounter>
               <reference value="20050796"></reference>
            </encounter>
         </Procedure>
      </resource>
      <request>
         <method value="POST"></method>
         <url value="Procedure"></url>
         <ifNoneExist value="identifier=http://www.imi-mimic.de/procs|20050796_2"></ifNoneExist>
      </request>
   </entry>
   <entry>
      <fullUrl value="urn:uuid:fe2519b1-216a-4bc8-b685-196603c51f5a"></fullUrl>
      <resource>
         <Procedure xmlns="http://hl7.org/fhir">
            <meta>
               <profile value="https://www.medizininformatik-initiative.de/fhir/core/modul-prozedur/StructureDefinition/Procedure"></profile>
            </meta>
            <identifier>
               <system value="http://www.imi-mimic.de/procs"></system>
               <value value="20050796_1"></value>
            </identifier>
            <status value="completed"></status>
            <subject>
               <reference value="10050755"></reference>
            </subject>
            <encounter>
               <reference value="20050796"></reference>
            </encounter>
         </Procedure>
      </resource>
      <request>
         <method value="POST"></method>
         <url value="Procedure"></url>
         <ifNoneExist value="identifier=http://www.imi-mimic.de/procs|20050796_1"></ifNoneExist>
      </request>
   </entry>
   <entry>
      <fullUrl value="urn:uuid:eeab682b-a852-418a-961e-449455605871"></fullUrl>
      <resource>
         <Location xmlns="http://hl7.org/fhir">
            <identifier>
               <system value="http://www.imi-mimic.de/location/Medicine"></system>
               <value value="Medicine"></value>
            </identifier>
            <name value="Medicine"></name>
            <type>
               <coding>
                  <system value="http://terminology.hl7.org/ValueSet/v3-ServiceDeliveryLocationRoleType"></system>
                  <code value="_ServiceDeliveryLocationRoleType"></code>
                  <display value="ServiceDeliveryLocationRoleType"></display>
               </coding>
            </type>
            <physicalType>
               <coding>
                  <system value="http://terminology.hl7.org/CodeSystem/location-physical-type"></system>
                  <code value="wa"></code>
                  <display value="Ward"></display>
               </coding>
            </physicalType>
            <managingOrganization>
               <reference value="urn:uuid:5c4eecc9-1c0d-4e2f-95a6-fcb76522417a"></reference>
            </managingOrganization>
         </Location>
      </resource>
      <request>
         <method value="POST"></method>
         <url value="Location"></url>
         <ifNoneExist value="identifier=http://www.imi-mimic.de/location/Medicine|Medicine"></ifNoneExist>
      </request>
   </entry>
   <entry>
      <fullUrl value="urn:uuid:a87f8ef0-ad94-4c9a-acf2-554d89d78b89"></fullUrl>
      <resource>
         <Encounter xmlns="http://hl7.org/fhir">
            <status value="finished"></status>
            <class>
               <system value="https://www.medizininformatik-initiative.de/fhir/core/CodeSystem/EncounterClassAdditionsDE"></system>
               <code value="_ActEncounterCode"></code>
               <display value="ActEncounterCode"></display>
            </class>
            <period>
               <start value="2134-02-25T00:00:00+00:00"></start>
               <end value="2134-02-25T00:00:00+00:00"></end>
            </period>
            <location>
               <location>
                  <reference value="urn:uuid:eeab682b-a852-418a-961e-449455605871"></reference>
               </location>
               <status value="completed"></status>
               <physicalType>
                  <coding>
                     <system value="http://terminology.hl7.org/CodeSystem/location-physical-type"></system>
                     <code value="wa"></code>
                     <display value="Ward"></display>
                  </coding>
               </physicalType>
               <period>
                  <start value="2134-02-25T00:00:00+00:00"></start>
                  <end value="2134-02-25T00:00:00+00:00"></end>
               </period>
            </location>
            <serviceProvider>
               <reference value="urn:uuid:5c4eecc9-1c0d-4e2f-95a6-fcb76522417a"></reference>
            </serviceProvider>
            <partOf>
               <reference value="urn:uuid:347a1235-c639-4946-a034-841224b79d27"></reference>
            </partOf>
         </Encounter>
      </resource>
      <request>
         <method value="POST"></method>
         <url value="Encounter"></url>
         <ifNoneExist value="identifier=null|null"></ifNoneExist>
      </request>
   </entry>
   <entry>
      <fullUrl value="urn:uuid:4338d3a9-d48a-46dd-bfd8-6fd8722080b0"></fullUrl>
      <resource>
         <Location xmlns="http://hl7.org/fhir">
            <identifier>
               <system value="http://www.imi-mimic.de/location/Unknown"></system>
               <value value="Unknown"></value>
            </identifier>
            <name value="Unknown"></name>
            <type>
               <coding>
                  <system value="http://terminology.hl7.org/ValueSet/v3-ServiceDeliveryLocationRoleType"></system>
                  <code value="_ServiceDeliveryLocationRoleType"></code>
                  <display value="ServiceDeliveryLocationRoleType"></display>
               </coding>
            </type>
            <physicalType>
               <coding>
                  <system value="http://terminology.hl7.org/CodeSystem/location-physical-type"></system>
                  <code value="wa"></code>
                  <display value="Ward"></display>
               </coding>
            </physicalType>
            <managingOrganization>
               <reference value="urn:uuid:36ad2032-0307-431e-be03-410e49e859e4"></reference>
            </managingOrganization>
         </Location>
      </resource>
      <request>
         <method value="POST"></method>
         <url value="Location"></url>
         <ifNoneExist value="identifier=http://www.imi-mimic.de/location/Unknown|Unknown"></ifNoneExist>
      </request>
   </entry>
   <entry>
      <fullUrl value="urn:uuid:fedcdb4b-191c-442f-8c73-01bcffc72096"></fullUrl>
      <resource>
         <Encounter xmlns="http://hl7.org/fhir">
            <status value="finished"></status>
            <class>
               <system value="https://www.medizininformatik-initiative.de/fhir/core/CodeSystem/EncounterClassAdditionsDE"></system>
               <code value="_ActEncounterCode"></code>
               <display value="ActEncounterCode"></display>
            </class>
            <period>
               <start value="2134-02-26T00:00:00+00:00"></start>
            </period>
            <location>
               <location>
                  <reference value="urn:uuid:4338d3a9-d48a-46dd-bfd8-6fd8722080b0"></reference>
               </location>
               <status value="completed"></status>
               <physicalType>
                  <coding>
                     <system value="http://terminology.hl7.org/CodeSystem/location-physical-type"></system>
                     <code value="wa"></code>
                     <display value="Ward"></display>
                  </coding>
               </physicalType>
               <period>
                  <start value="2134-02-26T00:00:00+00:00"></start>
               </period>
            </location>
            <serviceProvider>
               <reference value="urn:uuid:36ad2032-0307-431e-be03-410e49e859e4"></reference>
            </serviceProvider>
            <partOf>
               <reference value="urn:uuid:347a1235-c639-4946-a034-841224b79d27"></reference>
            </partOf>
         </Encounter>
      </resource>
      <request>
         <method value="POST"></method>
         <url value="Encounter"></url>
         <ifNoneExist value="identifier=null|null"></ifNoneExist>
      </request>
   </entry>
   <entry>
      <fullUrl value="urn:uuid:6cd56d23-4c72-4f4f-abb1-75f1e635882f"></fullUrl>
      <resource>
         <Location xmlns="http://hl7.org/fhir">
            <identifier>
               <system value="http://www.imi-mimic.de/location/Discharge_Lounge"></system>
               <value value="Discharge Lounge"></value>
            </identifier>
            <name value="Discharge Lounge"></name>
            <type>
               <coding>
                  <system value="http://terminology.hl7.org/ValueSet/v3-ServiceDeliveryLocationRoleType"></system>
                  <code value="_ServiceDeliveryLocationRoleType"></code>
                  <display value="ServiceDeliveryLocationRoleType"></display>
               </coding>
            </type>
            <physicalType>
               <coding>
                  <system value="http://terminology.hl7.org/CodeSystem/location-physical-type"></system>
                  <code value="wa"></code>
                  <display value="Ward"></display>
               </coding>
            </physicalType>
            <managingOrganization>
               <reference value="urn:uuid:c0557ede-45ec-41ca-97e3-b0eb775befd1"></reference>
            </managingOrganization>
         </Location>
      </resource>
      <request>
         <method value="POST"></method>
         <url value="Location"></url>
         <ifNoneExist value="identifier=http://www.imi-mimic.de/location/Discharge_Lounge|Discharge Lounge"></ifNoneExist>
      </request>
   </entry>
   <entry>
      <fullUrl value="urn:uuid:588c64a5-3aca-4fb5-b9bb-8aa3c75eaa45"></fullUrl>
      <resource>
         <Encounter xmlns="http://hl7.org/fhir">
            <status value="finished"></status>
            <class>
               <system value="https://www.medizininformatik-initiative.de/fhir/core/CodeSystem/EncounterClassAdditionsDE"></system>
               <code value="_ActEncounterCode"></code>
               <display value="ActEncounterCode"></display>
            </class>
            <period>
               <start value="2134-02-25T00:00:00+00:00"></start>
               <end value="2134-02-25T00:00:00+00:00"></end>
            </period>
            <location>
               <location>
                  <reference value="urn:uuid:6cd56d23-4c72-4f4f-abb1-75f1e635882f"></reference>
               </location>
               <status value="completed"></status>
               <physicalType>
                  <coding>
                     <system value="http://terminology.hl7.org/CodeSystem/location-physical-type"></system>
                     <code value="wa"></code>
                     <display value="Ward"></display>
                  </coding>
               </physicalType>
               <period>
                  <start value="2134-02-25T00:00:00+00:00"></start>
                  <end value="2134-02-25T00:00:00+00:00"></end>
               </period>
            </location>
            <serviceProvider>
               <reference value="urn:uuid:c0557ede-45ec-41ca-97e3-b0eb775befd1"></reference>
            </serviceProvider>
            <partOf>
               <reference value="urn:uuid:347a1235-c639-4946-a034-841224b79d27"></reference>
            </partOf>
         </Encounter>
      </resource>
      <request>
         <method value="POST"></method>
         <url value="Encounter"></url>
         <ifNoneExist value="identifier=null|null"></ifNoneExist>
      </request>
   </entry>
   <entry>
      <fullUrl value="urn:uuid:e55cd0b7-f631-49c5-abae-aa6dd488a35f"></fullUrl>
      <resource>
         <Location xmlns="http://hl7.org/fhir">
            <identifier>
               <system value="http://www.imi-mimic.de/location/Medical/Surgical_Intensive_Care_Unit_(MICU/SICU)"></system>
               <value value="Medical/Surgical Intensive Care Unit (MICU/SICU)"></value>
            </identifier>
            <name value="Medical/Surgical Intensive Care Unit (MICU/SICU)"></name>
            <type>
               <coding>
                  <system value="http://terminology.hl7.org/ValueSet/v3-ServiceDeliveryLocationRoleType"></system>
                  <code value="_ServiceDeliveryLocationRoleType"></code>
                  <display value="ServiceDeliveryLocationRoleType"></display>
               </coding>
            </type>
            <physicalType>
               <coding>
                  <system value="http://terminology.hl7.org/CodeSystem/location-physical-type"></system>
                  <code value="wa"></code>
                  <display value="Ward"></display>
               </coding>
            </physicalType>
            <managingOrganization>
               <reference value="urn:uuid:469c0222-5d2a-46ca-be8c-d0d12527aaca"></reference>
            </managingOrganization>
         </Location>
      </resource>
      <request>
         <method value="POST"></method>
         <url value="Location"></url>
         <ifNoneExist value="identifier=http://www.imi-mimic.de/location/Medical/Surgical_Intensive_Care_Unit_(MICU/SICU)|Medical/Surgical Intensive Care Unit (MICU/SICU)"></ifNoneExist>
      </request>
   </entry>
   <entry>
      <fullUrl value="urn:uuid:42ca381e-58bb-4ea7-9ca6-bf532a1c172b"></fullUrl>
      <resource>
         <Encounter xmlns="http://hl7.org/fhir">
            <status value="finished"></status>
            <class>
               <system value="https://www.medizininformatik-initiative.de/fhir/core/CodeSystem/EncounterClassAdditionsDE"></system>
               <code value="_ActEncounterCode"></code>
               <display value="ActEncounterCode"></display>
            </class>
            <period>
               <start value="2134-02-26T00:00:00+00:00"></start>
               <end value="2134-02-26T00:00:00+00:00"></end>
            </period>
            <location>
               <location>
                  <reference value="urn:uuid:e55cd0b7-f631-49c5-abae-aa6dd488a35f"></reference>
               </location>
               <status value="completed"></status>
               <physicalType>
                  <coding>
                     <system value="http://terminology.hl7.org/CodeSystem/location-physical-type"></system>
                     <code value="wa"></code>
                     <display value="Ward"></display>
                  </coding>
               </physicalType>
               <period>
                  <start value="2134-02-26T00:00:00+00:00"></start>
                  <end value="2134-02-26T00:00:00+00:00"></end>
               </period>
            </location>
            <serviceProvider>
               <reference value="urn:uuid:469c0222-5d2a-46ca-be8c-d0d12527aaca"></reference>
            </serviceProvider>
            <partOf>
               <reference value="urn:uuid:347a1235-c639-4946-a034-841224b79d27"></reference>
            </partOf>
         </Encounter>
      </resource>
      <request>
         <method value="POST"></method>
         <url value="Encounter"></url>
         <ifNoneExist value="identifier=null|null"></ifNoneExist>
      </request>
   </entry>
   <entry>
      <fullUrl value="urn:uuid:02cc4162-33a3-4ed3-848f-0ebb7ab06076"></fullUrl>
      <resource>
         <Location xmlns="http://hl7.org/fhir">
            <identifier>
               <system value="http://www.imi-mimic.de/location/Emergency_Department"></system>
               <value value="Emergency Department"></value>
            </identifier>
            <name value="Emergency Department"></name>
            <type>
               <coding>
                  <system value="http://terminology.hl7.org/ValueSet/v3-ServiceDeliveryLocationRoleType"></system>
                  <code value="_ServiceDeliveryLocationRoleType"></code>
                  <display value="ServiceDeliveryLocationRoleType"></display>
               </coding>
            </type>
            <physicalType>
               <coding>
                  <system value="http://terminology.hl7.org/CodeSystem/location-physical-type"></system>
                  <code value="wa"></code>
                  <display value="Ward"></display>
               </coding>
            </physicalType>
            <managingOrganization>
               <reference value="urn:uuid:3e5cb101-0673-4bb5-85dd-9e4192001f7c"></reference>
            </managingOrganization>
         </Location>
      </resource>
      <request>
         <method value="POST"></method>
         <url value="Location"></url>
         <ifNoneExist value="identifier=http://www.imi-mimic.de/location/Emergency_Department|Emergency Department"></ifNoneExist>
      </request>
   </entry>
   <entry>
      <fullUrl value="urn:uuid:ff921ce7-7b4d-4a0a-81cc-fd0638303e18"></fullUrl>
      <resource>
         <Encounter xmlns="http://hl7.org/fhir">
            <status value="finished"></status>
            <class>
               <system value="https://www.medizininformatik-initiative.de/fhir/core/CodeSystem/EncounterClassAdditionsDE"></system>
               <code value="_ActEncounterCode"></code>
               <display value="ActEncounterCode"></display>
            </class>
            <period>
               <start value="2134-02-25T00:00:00+00:00"></start>
               <end value="2134-02-25T00:00:00+00:00"></end>
            </period>
            <location>
               <location>
                  <reference value="urn:uuid:02cc4162-33a3-4ed3-848f-0ebb7ab06076"></reference>
               </location>
               <status value="completed"></status>
               <physicalType>
                  <coding>
                     <system value="http://terminology.hl7.org/CodeSystem/location-physical-type"></system>
                     <code value="wa"></code>
                     <display value="Ward"></display>
                  </coding>
               </physicalType>
               <period>
                  <start value="2134-02-25T00:00:00+00:00"></start>
                  <end value="2134-02-25T00:00:00+00:00"></end>
               </period>
            </location>
            <serviceProvider>
               <reference value="urn:uuid:3e5cb101-0673-4bb5-85dd-9e4192001f7c"></reference>
            </serviceProvider>
            <partOf>
               <reference value="urn:uuid:347a1235-c639-4946-a034-841224b79d27"></reference>
            </partOf>
         </Encounter>
      </resource>
      <request>
         <method value="POST"></method>
         <url value="Encounter"></url>
         <ifNoneExist value="identifier=null|null"></ifNoneExist>
      </request>
   </entry>
   <entry>
      <fullUrl value="urn:uuid:347a1235-c639-4946-a034-841224b79d27"></fullUrl>
      <resource>
         <Encounter xmlns="http://hl7.org/fhir">
            <meta>
               <profile value="https://www.umontreal.ca/fhir/core/modul-fall/StructureDefinition/KontaktGesundheitseinrichtung"></profile>
            </meta>
            <identifier>
               <type>
                  <coding>
                     <system value="http://terminology.hl7.org/CodeSystem/v2-0203"></system>
                     <code value="VN"></code>
                  </coding>
               </type>
               <system value="http://www.umontreal.ca/encs"></system>
               <value value="20050796"></value>
            </identifier>
            <status value="finished"></status>
            <class>
               <system value="https://www.umontreal.ca/fhir/core/ValueSet/EncounterClassDE"></system>
               <code value="normalstationaer"></code>
               <display value="Normalstationaer"></display>
            </class>
            <period>
               <start value="2134-02-25T00:00:00+00:00"></start>
               <end value="2134-02-26T00:00:00+00:00"></end>
            </period>
            <diagnosis>
               <condition>
                  <reference value="urn:uuid:bd7d11b1-7c68-45b1-9297-47077d3d3ab1"></reference>
               </condition>
               <rank value="14"></rank>
            </diagnosis>
            <diagnosis>
               <condition>
                  <reference value="urn:uuid:39a6c3bd-6f3f-4662-a61c-96cfef80585c"></reference>
               </condition>
               <rank value="13"></rank>
            </diagnosis>
            <diagnosis>
               <condition>
                  <reference value="urn:uuid:42b9e001-2f7c-4565-a864-c9caf00a4dab"></reference>
               </condition>
               <rank value="12"></rank>
            </diagnosis>
            <diagnosis>
               <condition>
                  <reference value="urn:uuid:55b99376-dcf0-4066-ab5a-f3ba6851874e"></reference>
               </condition>
               <rank value="11"></rank>
            </diagnosis>
            <diagnosis>
               <condition>
                  <reference value="urn:uuid:d7af9ad2-dcd2-4a50-8019-2d91d7b78563"></reference>
               </condition>
               <rank value="10"></rank>
            </diagnosis>
            <diagnosis>
               <condition>
                  <reference value="urn:uuid:f0f240cf-bb53-4104-8707-1354802d00cf"></reference>
               </condition>
               <rank value="9"></rank>
            </diagnosis>
            <diagnosis>
               <condition>
                  <reference value="urn:uuid:442c79be-c464-4d6c-a186-03aba888486f"></reference>
               </condition>
               <rank value="8"></rank>
            </diagnosis>
            <diagnosis>
               <condition>
                  <reference value="urn:uuid:b36a84ba-df4d-44f9-ae12-2d55a3a2f4e8"></reference>
               </condition>
               <rank value="7"></rank>
            </diagnosis>
            <diagnosis>
               <condition>
                  <reference value="urn:uuid:38da0eb7-ed0d-46e1-91b5-a68f7a19fafd"></reference>
               </condition>
               <rank value="6"></rank>
            </diagnosis>
            <diagnosis>
               <condition>
                  <reference value="urn:uuid:235f3cef-c120-47c5-b970-ab932b9ae9cb"></reference>
               </condition>
               <rank value="5"></rank>
            </diagnosis>
            <diagnosis>
               <condition>
                  <reference value="urn:uuid:1ec182ab-193a-4b5e-9ab8-4abe95fe586e"></reference>
               </condition>
               <rank value="4"></rank>
            </diagnosis>
            <diagnosis>
               <condition>
                  <reference value="urn:uuid:61486eda-a9b1-478d-9cc0-979bdbfa45a7"></reference>
               </condition>
               <rank value="3"></rank>
            </diagnosis>
            <diagnosis>
               <condition>
                  <reference value="urn:uuid:6e2a50bb-c203-4cc0-94f8-6c595d2670a1"></reference>
               </condition>
               <rank value="2"></rank>
            </diagnosis>
            <diagnosis>
               <condition>
                  <reference value="urn:uuid:cfbaa01f-0213-4e42-b74b-d2fd0508ac7e"></reference>
               </condition>
               <rank value="1"></rank>
            </diagnosis>
            <diagnosis>
               <condition>
                  <reference value="urn:uuid:96b03a91-69ea-4715-829a-9ab98a79dbef"></reference>
               </condition>
               <rank value="2"></rank>
            </diagnosis>
            <diagnosis>
               <condition>
                  <reference value="urn:uuid:fe2519b1-216a-4bc8-b685-196603c51f5a"></reference>
               </condition>
               <rank value="1"></rank>
            </diagnosis>
            <hospitalization>
               <dischargeDisposition>
                  <coding>
                     <system value="https://www.umontreal.ca/fhir/core/modul-fall/CodeSystem/Entlassungsgrund"></system>
                     <code value="039"></code>
                     <display value="Behandlung aus sonstigen Gruenden beendet, keine Angabe"></display>
                  </coding>
               </dischargeDisposition>
            </hospitalization>
         </Encounter>
      </resource>
      <request>
         <method value="POST"></method>
         <url value="Encounter"></url>
         <ifNoneExist value="identifier=http://www.umontreal.ca/encs|20050796"></ifNoneExist>
      </request>
   </entry>
   <entry>
      <fullUrl value="urn:uuid:5307053c-2008-449b-b768-92b4d36e4348"></fullUrl>
      <resource>
         <Medication xmlns="http://hl7.org/fhir">
            <text>
               <status value="generated"></status>
            </text>
         </Medication>
      </resource>
      <request>
         <method value="POST"></method>
         <url value="Medication"></url>
         <ifNoneExist value="code=null"></ifNoneExist>
      </request>
   </entry>
   <entry>
      <resource>
         <MedicationAdministration xmlns="http://hl7.org/fhir">
            <meta>
               <profile value="https://www.medizininformatik-initiative.de/fhir/core/modul-medikation/StructureDefinition/MedicationAdministration"></profile>
            </meta>
            <identifier>
               <system value="http://umontreal.ca/prescriptions"></system>
               <value value="20050796_0"></value>
            </identifier>
            <status value="completed"></status>
            <medicationReference>
               <reference value="urn:uuid:5307053c-2008-449b-b768-92b4d36e4348"></reference>
            </medicationReference>
            <subject>
               <reference value="10050755"></reference>
            </subject>
            <context>
               <reference value="20050796"></reference>
            </context>
            <effectivePeriod>
               <start value="2134-02-26T00:00:00+00:00"></start>
               <end value="2134-02-26T00:00:00+00:00"></end>
            </effectivePeriod>
         </MedicationAdministration>
      </resource>
      <request>
         <method value="POST"></method>
         <url value="MedicationAdministration"></url>
      </request>
   </entry>
   <entry>
      <resource>
         <MedicationAdministration xmlns="http://hl7.org/fhir">
            <meta>
               <profile value="https://www.medizininformatik-initiative.de/fhir/core/modul-medikation/StructureDefinition/MedicationAdministration"></profile>
            </meta>
            <identifier>
               <system value="http://umontreal.ca/prescriptions"></system>
               <value value="20050796_1"></value>
            </identifier>
            <status value="completed"></status>
            <medicationReference>
               <reference value="urn:uuid:5307053c-2008-449b-b768-92b4d36e4348"></reference>
            </medicationReference>
            <subject>
               <reference value="10050755"></reference>
            </subject>
            <context>
               <reference value="20050796"></reference>
            </context>
            <effectivePeriod>
               <start value="2134-02-26T00:00:00+00:00"></start>
               <end value="2134-02-26T00:00:00+00:00"></end>
            </effectivePeriod>
         </MedicationAdministration>
      </resource>
      <request>
         <method value="POST"></method>
         <url value="MedicationAdministration"></url>
      </request>
   </entry>
   <entry>
      <resource>
         <MedicationAdministration xmlns="http://hl7.org/fhir">
            <meta>
               <profile value="https://www.medizininformatik-initiative.de/fhir/core/modul-medikation/StructureDefinition/MedicationAdministration"></profile>
            </meta>
            <identifier>
               <system value="http://umontreal.ca/prescriptions"></system>
               <value value="20050796_2"></value>
            </identifier>
            <status value="completed"></status>
            <medicationReference>
               <reference value="urn:uuid:5307053c-2008-449b-b768-92b4d36e4348"></reference>
            </medicationReference>
            <subject>
               <reference value="10050755"></reference>
            </subject>
            <context>
               <reference value="20050796"></reference>
            </context>
            <effectivePeriod>
               <start value="2134-02-26T00:00:00+00:00"></start>
               <end value="2134-02-26T00:00:00+00:00"></end>
            </effectivePeriod>
         </MedicationAdministration>
      </resource>
      <request>
         <method value="POST"></method>
         <url value="MedicationAdministration"></url>
      </request>
   </entry>
   <entry>
      <resource>
         <MedicationAdministration xmlns="http://hl7.org/fhir">
            <meta>
               <profile value="https://www.medizininformatik-initiative.de/fhir/core/modul-medikation/StructureDefinition/MedicationAdministration"></profile>
            </meta>
            <identifier>
               <system value="http://umontreal.ca/prescriptions"></system>
               <value value="20050796_3"></value>
            </identifier>
            <status value="completed"></status>
            <medicationReference>
               <reference value="urn:uuid:5307053c-2008-449b-b768-92b4d36e4348"></reference>
            </medicationReference>
            <subject>
               <reference value="10050755"></reference>
            </subject>
            <context>
               <reference value="20050796"></reference>
            </context>
            <effectivePeriod>
               <start value="2134-02-26T00:00:00+00:00"></start>
               <end value="2134-02-26T00:00:00+00:00"></end>
            </effectivePeriod>
         </MedicationAdministration>
      </resource>
      <request>
         <method value="POST"></method>
         <url value="MedicationAdministration"></url>
      </request>
   </entry>
   <entry>
      <resource>
         <MedicationAdministration xmlns="http://hl7.org/fhir">
            <meta>
               <profile value="https://www.medizininformatik-initiative.de/fhir/core/modul-medikation/StructureDefinition/MedicationAdministration"></profile>
            </meta>
            <identifier>
               <system value="http://umontreal.ca/prescriptions"></system>
               <value value="20050796_4"></value>
            </identifier>
            <status value="completed"></status>
            <medicationReference>
               <reference value="urn:uuid:5307053c-2008-449b-b768-92b4d36e4348"></reference>
            </medicationReference>
            <subject>
               <reference value="10050755"></reference>
            </subject>
            <context>
               <reference value="20050796"></reference>
            </context>
            <effectivePeriod>
               <start value="2134-02-26T00:00:00+00:00"></start>
               <end value="2134-02-26T00:00:00+00:00"></end>
            </effectivePeriod>
         </MedicationAdministration>
      </resource>
      <request>
         <method value="POST"></method>
         <url value="MedicationAdministration"></url>
      </request>
   </entry>
   <entry>
      <resource>
         <MedicationAdministration xmlns="http://hl7.org/fhir">
            <meta>
               <profile value="https://www.medizininformatik-initiative.de/fhir/core/modul-medikation/StructureDefinition/MedicationAdministration"></profile>
            </meta>
            <identifier>
               <system value="http://umontreal.ca/prescriptions"></system>
               <value value="20050796_5"></value>
            </identifier>
            <status value="completed"></status>
            <medicationReference>
               <reference value="urn:uuid:5307053c-2008-449b-b768-92b4d36e4348"></reference>
            </medicationReference>
            <subject>
               <reference value="10050755"></reference>
            </subject>
            <context>
               <reference value="20050796"></reference>
            </context>
            <effectivePeriod>
               <start value="2134-02-26T00:00:00+00:00"></start>
               <end value="2134-02-26T00:00:00+00:00"></end>
            </effectivePeriod>
         </MedicationAdministration>
      </resource>
      <request>
         <method value="POST"></method>
         <url value="MedicationAdministration"></url>
      </request>
   </entry>
   <entry>
      <resource>
         <MedicationAdministration xmlns="http://hl7.org/fhir">
            <meta>
               <profile value="https://www.medizininformatik-initiative.de/fhir/core/modul-medikation/StructureDefinition/MedicationAdministration"></profile>
            </meta>
            <identifier>
               <system value="http://umontreal.ca/prescriptions"></system>
               <value value="20050796_6"></value>
            </identifier>
            <status value="completed"></status>
            <medicationReference>
               <reference value="urn:uuid:5307053c-2008-449b-b768-92b4d36e4348"></reference>
            </medicationReference>
            <subject>
               <reference value="10050755"></reference>
            </subject>
            <context>
               <reference value="20050796"></reference>
            </context>
            <effectivePeriod>
               <start value="2134-02-26T00:00:00+00:00"></start>
               <end value="2134-02-26T00:00:00+00:00"></end>
            </effectivePeriod>
         </MedicationAdministration>
      </resource>
      <request>
         <method value="POST"></method>
         <url value="MedicationAdministration"></url>
      </request>
   </entry>
   <entry>
      <resource>
         <MedicationAdministration xmlns="http://hl7.org/fhir">
            <meta>
               <profile value="https://www.medizininformatik-initiative.de/fhir/core/modul-medikation/StructureDefinition/MedicationAdministration"></profile>
            </meta>
            <identifier>
               <system value="http://umontreal.ca/prescriptions"></system>
               <value value="20050796_7"></value>
            </identifier>
            <status value="completed"></status>
            <medicationReference>
               <reference value="urn:uuid:5307053c-2008-449b-b768-92b4d36e4348"></reference>
            </medicationReference>
            <subject>
               <reference value="10050755"></reference>
            </subject>
            <context>
               <reference value="20050796"></reference>
            </context>
            <effectivePeriod>
               <start value="2134-02-26T00:00:00+00:00"></start>
               <end value="2134-02-26T00:00:00+00:00"></end>
            </effectivePeriod>
         </MedicationAdministration>
      </resource>
      <request>
         <method value="POST"></method>
         <url value="MedicationAdministration"></url>
      </request>
   </entry>
   <entry>
      <resource>
         <MedicationAdministration xmlns="http://hl7.org/fhir">
            <meta>
               <profile value="https://www.medizininformatik-initiative.de/fhir/core/modul-medikation/StructureDefinition/MedicationAdministration"></profile>
            </meta>
            <identifier>
               <system value="http://umontreal.ca/prescriptions"></system>
               <value value="20050796_8"></value>
            </identifier>
            <status value="completed"></status>
            <medicationReference>
               <reference value="urn:uuid:5307053c-2008-449b-b768-92b4d36e4348"></reference>
            </medicationReference>
            <subject>
               <reference value="10050755"></reference>
            </subject>
            <context>
               <reference value="20050796"></reference>
            </context>
            <effectivePeriod>
               <start value="2134-02-26T00:00:00+00:00"></start>
               <end value="2134-02-26T00:00:00+00:00"></end>
            </effectivePeriod>
         </MedicationAdministration>
      </resource>
      <request>
         <method value="POST"></method>
         <url value="MedicationAdministration"></url>
      </request>
   </entry>
   <entry>
      <resource>
         <MedicationAdministration xmlns="http://hl7.org/fhir">
            <meta>
               <profile value="https://www.medizininformatik-initiative.de/fhir/core/modul-medikation/StructureDefinition/MedicationAdministration"></profile>
            </meta>
            <identifier>
               <system value="http://umontreal.ca/prescriptions"></system>
               <value value="20050796_9"></value>
            </identifier>
            <status value="completed"></status>
            <medicationReference>
               <reference value="urn:uuid:5307053c-2008-449b-b768-92b4d36e4348"></reference>
            </medicationReference>
            <subject>
               <reference value="10050755"></reference>
            </subject>
            <context>
               <reference value="20050796"></reference>
            </context>
            <effectivePeriod>
               <start value="2134-02-26T00:00:00+00:00"></start>
               <end value="2134-02-26T00:00:00+00:00"></end>
            </effectivePeriod>
         </MedicationAdministration>
      </resource>
      <request>
         <method value="POST"></method>
         <url value="MedicationAdministration"></url>
      </request>
   </entry>
   <entry>
      <resource>
         <MedicationAdministration xmlns="http://hl7.org/fhir">
            <meta>
               <profile value="https://www.medizininformatik-initiative.de/fhir/core/modul-medikation/StructureDefinition/MedicationAdministration"></profile>
            </meta>
            <identifier>
               <system value="http://umontreal.ca/prescriptions"></system>
               <value value="20050796_10"></value>
            </identifier>
            <status value="completed"></status>
            <medicationReference>
               <reference value="urn:uuid:5307053c-2008-449b-b768-92b4d36e4348"></reference>
            </medicationReference>
            <subject>
               <reference value="10050755"></reference>
            </subject>
            <context>
               <reference value="20050796"></reference>
            </context>
            <effectivePeriod>
               <start value="2134-02-26T00:00:00+00:00"></start>
               <end value="2134-02-26T00:00:00+00:00"></end>
            </effectivePeriod>
         </MedicationAdministration>
      </resource>
      <request>
         <method value="POST"></method>
         <url value="MedicationAdministration"></url>
      </request>
   </entry>
   <entry>
      <resource>
         <MedicationAdministration xmlns="http://hl7.org/fhir">
            <meta>
               <profile value="https://www.medizininformatik-initiative.de/fhir/core/modul-medikation/StructureDefinition/MedicationAdministration"></profile>
            </meta>
            <identifier>
               <system value="http://umontreal.ca/prescriptions"></system>
               <value value="20050796_11"></value>
            </identifier>
            <status value="completed"></status>
            <medicationReference>
               <reference value="urn:uuid:5307053c-2008-449b-b768-92b4d36e4348"></reference>
            </medicationReference>
            <subject>
               <reference value="10050755"></reference>
            </subject>
            <context>
               <reference value="20050796"></reference>
            </context>
            <effectivePeriod>
               <start value="2134-02-26T00:00:00+00:00"></start>
               <end value="2134-02-26T00:00:00+00:00"></end>
            </effectivePeriod>
         </MedicationAdministration>
      </resource>
      <request>
         <method value="POST"></method>
         <url value="MedicationAdministration"></url>
      </request>
   </entry>
   <entry>
      <resource>
         <MedicationAdministration xmlns="http://hl7.org/fhir">
            <meta>
               <profile value="https://www.medizininformatik-initiative.de/fhir/core/modul-medikation/StructureDefinition/MedicationAdministration"></profile>
            </meta>
            <identifier>
               <system value="http://umontreal.ca/prescriptions"></system>
               <value value="20050796_12"></value>
            </identifier>
            <status value="completed"></status>
            <medicationReference>
               <reference value="urn:uuid:5307053c-2008-449b-b768-92b4d36e4348"></reference>
            </medicationReference>
            <subject>
               <reference value="10050755"></reference>
            </subject>
            <context>
               <reference value="20050796"></reference>
            </context>
            <effectivePeriod>
               <start value="2134-02-26T00:00:00+00:00"></start>
               <end value="2134-02-26T00:00:00+00:00"></end>
            </effectivePeriod>
         </MedicationAdministration>
      </resource>
      <request>
         <method value="POST"></method>
         <url value="MedicationAdministration"></url>
      </request>
   </entry>
   <entry>
      <resource>
         <MedicationAdministration xmlns="http://hl7.org/fhir">
            <meta>
               <profile value="https://www.medizininformatik-initiative.de/fhir/core/modul-medikation/StructureDefinition/MedicationAdministration"></profile>
            </meta>
            <identifier>
               <system value="http://umontreal.ca/prescriptions"></system>
               <value value="20050796_13"></value>
            </identifier>
            <status value="completed"></status>
            <medicationReference>
               <reference value="urn:uuid:5307053c-2008-449b-b768-92b4d36e4348"></reference>
            </medicationReference>
            <subject>
               <reference value="10050755"></reference>
            </subject>
            <context>
               <reference value="20050796"></reference>
            </context>
            <effectivePeriod>
               <start value="2134-02-26T00:00:00+00:00"></start>
               <end value="2134-02-26T00:00:00+00:00"></end>
            </effectivePeriod>
         </MedicationAdministration>
      </resource>
      <request>
         <method value="POST"></method>
         <url value="MedicationAdministration"></url>
      </request>
   </entry>
   <entry>
      <resource>
         <MedicationAdministration xmlns="http://hl7.org/fhir">
            <meta>
               <profile value="https://www.medizininformatik-initiative.de/fhir/core/modul-medikation/StructureDefinition/MedicationAdministration"></profile>
            </meta>
            <identifier>
               <system value="http://umontreal.ca/prescriptions"></system>
               <value value="20050796_14"></value>
            </identifier>
            <status value="completed"></status>
            <medicationReference>
               <reference value="urn:uuid:5307053c-2008-449b-b768-92b4d36e4348"></reference>
            </medicationReference>
            <subject>
               <reference value="10050755"></reference>
            </subject>
            <context>
               <reference value="20050796"></reference>
            </context>
            <effectivePeriod>
               <start value="2134-02-26T00:00:00+00:00"></start>
               <end value="2134-02-26T00:00:00+00:00"></end>
            </effectivePeriod>
         </MedicationAdministration>
      </resource>
      <request>
         <method value="POST"></method>
         <url value="MedicationAdministration"></url>
      </request>
   </entry>
   <entry>
      <resource>
         <MedicationAdministration xmlns="http://hl7.org/fhir">
            <meta>
               <profile value="https://www.medizininformatik-initiative.de/fhir/core/modul-medikation/StructureDefinition/MedicationAdministration"></profile>
            </meta>
            <identifier>
               <system value="http://umontreal.ca/prescriptions"></system>
               <value value="20050796_15"></value>
            </identifier>
            <status value="completed"></status>
            <medicationReference>
               <reference value="urn:uuid:5307053c-2008-449b-b768-92b4d36e4348"></reference>
            </medicationReference>
            <subject>
               <reference value="10050755"></reference>
            </subject>
            <context>
               <reference value="20050796"></reference>
            </context>
            <effectivePeriod>
               <start value="2134-02-26T00:00:00+00:00"></start>
               <end value="2134-02-26T00:00:00+00:00"></end>
            </effectivePeriod>
         </MedicationAdministration>
      </resource>
      <request>
         <method value="POST"></method>
         <url value="MedicationAdministration"></url>
      </request>
   </entry>
   <entry>
      <resource>
         <MedicationAdministration xmlns="http://hl7.org/fhir">
            <meta>
               <profile value="https://www.medizininformatik-initiative.de/fhir/core/modul-medikation/StructureDefinition/MedicationAdministration"></profile>
            </meta>
            <identifier>
               <system value="http://umontreal.ca/prescriptions"></system>
               <value value="20050796_16"></value>
            </identifier>
            <status value="completed"></status>
            <medicationReference>
               <reference value="urn:uuid:5307053c-2008-449b-b768-92b4d36e4348"></reference>
            </medicationReference>
            <subject>
               <reference value="10050755"></reference>
            </subject>
            <context>
               <reference value="20050796"></reference>
            </context>
            <effectivePeriod>
               <start value="2134-02-26T00:00:00+00:00"></start>
               <end value="2134-02-26T00:00:00+00:00"></end>
            </effectivePeriod>
         </MedicationAdministration>
      </resource>
      <request>
         <method value="POST"></method>
         <url value="MedicationAdministration"></url>
      </request>
   </entry>
   <entry>
      <resource>
         <MedicationAdministration xmlns="http://hl7.org/fhir">
            <meta>
               <profile value="https://www.medizininformatik-initiative.de/fhir/core/modul-medikation/StructureDefinition/MedicationAdministration"></profile>
            </meta>
            <identifier>
               <system value="http://umontreal.ca/prescriptions"></system>
               <value value="20050796_17"></value>
            </identifier>
            <status value="completed"></status>
            <medicationReference>
               <reference value="urn:uuid:5307053c-2008-449b-b768-92b4d36e4348"></reference>
            </medicationReference>
            <subject>
               <reference value="10050755"></reference>
            </subject>
            <context>
               <reference value="20050796"></reference>
            </context>
            <effectivePeriod>
               <start value="2134-02-26T00:00:00+00:00"></start>
               <end value="2134-02-26T00:00:00+00:00"></end>
            </effectivePeriod>
         </MedicationAdministration>
      </resource>
      <request>
         <method value="POST"></method>
         <url value="MedicationAdministration"></url>
      </request>
   </entry>
   <entry>
      <resource>
         <Observation xmlns="http://hl7.org/fhir">
            <meta>
               <profile value="https://www.medizininformatik-initiative.de/fhir/core/modul-person/StructureDefinition/Vitalstatus"></profile>
            </meta>
            <partOf>
               <reference value="20050796"></reference>
            </partOf>
            <status value="final"></status>
            <category>
               <coding>
                  <system value="http://terminology.hl7.org/CodeSystem/observation-category"></system>
                  <code value="survey"></code>
                  <display value="Survey"></display>
               </coding>
            </category>
            <category>
               <coding>
                  <system value="http://hl7.org/fhir/observation-category"></system>
                  <code value="vital_signs"></code>
                  <display value="Vital Signs"></display>
               </coding>
            </category>
            <code>
               <coding>
                  <system value="http://loinc.org"></system>
                  <code value="8867-4"></code>
                  <display value="Heart Rate"></display>
               </coding>
            </code>
            <subject>
               <reference value="10050755"></reference>
            </subject>
            <effectiveDateTime value="2134-02-26T00:00:00+00:00"></effectiveDateTime>
            <valueCodeableConcept>
               <coding>
                  <system value="https://www.medizininformatik-initiative.de/fhir/core/CodeSystem/Vitalstatus"></system>
                  <code value="X"></code>
                  <display value="unbekannt"></display>
               </coding>
            </valueCodeableConcept>
         </Observation>
      </resource>
      <request>
         <method value="POST"></method>
         <url value="Observation"></url>
      </request>
   </entry>
   <entry>
      <resource>
         <Observation xmlns="http://hl7.org/fhir">
            <meta>
               <profile value="https://www.medizininformatik-initiative.de/fhir/core/modul-person/StructureDefinition/Vitalstatus"></profile>
            </meta>
            <partOf>
               <reference value="20050796"></reference>
            </partOf>
            <status value="final"></status>
            <category>
               <coding>
                  <system value="http://terminology.hl7.org/CodeSystem/observation-category"></system>
                  <code value="survey"></code>
                  <display value="Survey"></display>
               </coding>
            </category>
            <category>
               <coding>
                  <system value="http://hl7.org/fhir/observation-category"></system>
                  <code value="vital_signs"></code>
                  <display value="Vital Signs"></display>
               </coding>
            </category>
            <code>
               <coding>
                  <system value="http://loinc.org"></system>
                  <code value="9279-1"></code>
                  <display value="Respiratory Rate"></display>
               </coding>
            </code>
            <subject>
               <reference value="10050755"></reference>
            </subject>
            <effectiveDateTime value="2134-02-26T00:00:00+00:00"></effectiveDateTime>
            <valueCodeableConcept>
               <coding>
                  <system value="https://www.medizininformatik-initiative.de/fhir/core/CodeSystem/Vitalstatus"></system>
                  <code value="X"></code>
                  <display value="unbekannt"></display>
               </coding>
            </valueCodeableConcept>
         </Observation>
      </resource>
      <request>
         <method value="POST"></method>
         <url value="Observation"></url>
      </request>
   </entry>
   <entry>
      <resource>
         <Observation xmlns="http://hl7.org/fhir">
            <meta>
               <profile value="https://www.medizininformatik-initiative.de/fhir/core/modul-person/StructureDefinition/Vitalstatus"></profile>
            </meta>
            <partOf>
               <reference value="20050796"></reference>
            </partOf>
            <status value="final"></status>
            <category>
               <coding>
                  <system value="http://terminology.hl7.org/CodeSystem/observation-category"></system>
                  <code value="survey"></code>
                  <display value="Survey"></display>
               </coding>
            </category>
            <category>
               <coding>
                  <system value="http://hl7.org/fhir/observation-category"></system>
                  <code value="vital_signs"></code>
                  <display value="Vital Signs"></display>
               </coding>
            </category>
            <code>
               <coding>
                  <system value="http://loinc.org"></system>
                  <code value="75186-7"></code>
                  <display value="Vital Sign"></display>
               </coding>
            </code>
            <subject>
               <reference value="10050755"></reference>
            </subject>
            <effectiveDateTime value="2134-02-26T00:00:00+00:00"></effectiveDateTime>
            <valueCodeableConcept>
               <coding>
                  <system value="https://www.medizininformatik-initiative.de/fhir/core/CodeSystem/Vitalstatus"></system>
                  <code value="X"></code>
                  <display value="unbekannt"></display>
               </coding>
            </valueCodeableConcept>
         </Observation>
      </resource>
      <request>
         <method value="POST"></method>
         <url value="Observation"></url>
      </request>
   </entry>
   <entry>
      <resource>
         <Observation xmlns="http://hl7.org/fhir">
            <meta>
               <profile value="https://www.medizininformatik-initiative.de/fhir/core/modul-person/StructureDefinition/Vitalstatus"></profile>
            </meta>
            <partOf>
               <reference value="20050796"></reference>
            </partOf>
            <status value="final"></status>
            <category>
               <coding>
                  <system value="http://terminology.hl7.org/CodeSystem/observation-category"></system>
                  <code value="survey"></code>
                  <display value="Survey"></display>
               </coding>
            </category>
            <category>
               <coding>
                  <system value="http://hl7.org/fhir/observation-category"></system>
                  <code value="vital_signs"></code>
                  <display value="Vital Signs"></display>
               </coding>
            </category>
            <code>
               <coding>
                  <system value="http://loinc.org"></system>
                  <code value="8867-4"></code>
                  <display value="Heart Rate"></display>
               </coding>
            </code>
            <subject>
               <reference value="10050755"></reference>
            </subject>
            <effectiveDateTime value="2134-02-26T00:00:00+00:00"></effectiveDateTime>
            <valueCodeableConcept>
               <coding>
                  <system value="https://www.medizininformatik-initiative.de/fhir/core/CodeSystem/Vitalstatus"></system>
                  <code value="X"></code>
                  <display value="unbekannt"></display>
               </coding>
            </valueCodeableConcept>
         </Observation>
      </resource>
      <request>
         <method value="POST"></method>
         <url value="Observation"></url>
      </request>
   </entry>
   <entry>
      <resource>
         <Observation xmlns="http://hl7.org/fhir">
            <meta>
               <profile value="https://www.medizininformatik-initiative.de/fhir/core/modul-person/StructureDefinition/Vitalstatus"></profile>
            </meta>
            <partOf>
               <reference value="20050796"></reference>
            </partOf>
            <status value="final"></status>
            <category>
               <coding>
                  <system value="http://terminology.hl7.org/CodeSystem/observation-category"></system>
                  <code value="survey"></code>
                  <display value="Survey"></display>
               </coding>
            </category>
            <category>
               <coding>
                  <system value="http://hl7.org/fhir/observation-category"></system>
                  <code value="vital_signs"></code>
                  <display value="Vital Signs"></display>
               </coding>
            </category>
            <code>
               <coding>
                  <system value="http://loinc.org"></system>
                  <code value="9279-1"></code>
                  <display value="Respiratory Rate"></display>
               </coding>
            </code>
            <subject>
               <reference value="10050755"></reference>
            </subject>
            <effectiveDateTime value="2134-02-26T00:00:00+00:00"></effectiveDateTime>
            <valueCodeableConcept>
               <coding>
                  <system value="https://www.medizininformatik-initiative.de/fhir/core/CodeSystem/Vitalstatus"></system>
                  <code value="X"></code>
                  <display value="unbekannt"></display>
               </coding>
            </valueCodeableConcept>
         </Observation>
      </resource>
      <request>
         <method value="POST"></method>
         <url value="Observation"></url>
      </request>
   </entry>
   <entry>
      <resource>
         <Observation xmlns="http://hl7.org/fhir">
            <meta>
               <profile value="https://www.medizininformatik-initiative.de/fhir/core/modul-person/StructureDefinition/Vitalstatus"></profile>
            </meta>
            <partOf>
               <reference value="20050796"></reference>
            </partOf>
            <status value="final"></status>
            <category>
               <coding>
                  <system value="http://terminology.hl7.org/CodeSystem/observation-category"></system>
                  <code value="survey"></code>
                  <display value="Survey"></display>
               </coding>
            </category>
            <category>
               <coding>
                  <system value="http://hl7.org/fhir/observation-category"></system>
                  <code value="vital_signs"></code>
                  <display value="Vital Signs"></display>
               </coding>
            </category>
            <code>
               <coding>
                  <system value="http://loinc.org"></system>
                  <code value="8462-4"></code>
                  <display value="Systolic Blood Pressure"></display>
               </coding>
            </code>
            <subject>
               <reference value="10050755"></reference>
            </subject>
            <effectiveDateTime value="2134-02-26T00:00:00+00:00"></effectiveDateTime>
            <valueCodeableConcept>
               <coding>
                  <system value="https://www.medizininformatik-initiative.de/fhir/core/CodeSystem/Vitalstatus"></system>
                  <code value="X"></code>
                  <display value="unbekannt"></display>
               </coding>
            </valueCodeableConcept>
         </Observation>
      </resource>
      <request>
         <method value="POST"></method>
         <url value="Observation"></url>
      </request>
   </entry>
   <entry>
      <resource>
         <Observation xmlns="http://hl7.org/fhir">
            <meta>
               <profile value="https://www.medizininformatik-initiative.de/fhir/core/modul-person/StructureDefinition/Vitalstatus"></profile>
            </meta>
            <partOf>
               <reference value="20050796"></reference>
            </partOf>
            <status value="final"></status>
            <category>
               <coding>
                  <system value="http://terminology.hl7.org/CodeSystem/observation-category"></system>
                  <code value="survey"></code>
                  <display value="Survey"></display>
               </coding>
            </category>
            <category>
               <coding>
                  <system value="http://hl7.org/fhir/observation-category"></system>
                  <code value="vital_signs"></code>
                  <display value="Vital Signs"></display>
               </coding>
            </category>
            <code>
               <coding>
                  <system value="http://loinc.org"></system>
                  <code value="8480-6"></code>
                  <display value="Diastolic Blood Pressure"></display>
               </coding>
            </code>
            <subject>
               <reference value="10050755"></reference>
            </subject>
            <effectiveDateTime value="2134-02-26T00:00:00+00:00"></effectiveDateTime>
            <valueCodeableConcept>
               <coding>
                  <system value="https://www.medizininformatik-initiative.de/fhir/core/CodeSystem/Vitalstatus"></system>
                  <code value="X"></code>
                  <display value="unbekannt"></display>
               </coding>
            </valueCodeableConcept>
         </Observation>
      </resource>
      <request>
         <method value="POST"></method>
         <url value="Observation"></url>
      </request>
   </entry>
   <entry>
      <resource>
         <Observation xmlns="http://hl7.org/fhir">
            <meta>
               <profile value="https://www.medizininformatik-initiative.de/fhir/core/modul-person/StructureDefinition/Vitalstatus"></profile>
            </meta>
            <partOf>
               <reference value="20050796"></reference>
            </partOf>
            <status value="final"></status>
            <category>
               <coding>
                  <system value="http://terminology.hl7.org/CodeSystem/observation-category"></system>
                  <code value="survey"></code>
                  <display value="Survey"></display>
               </coding>
            </category>
            <category>
               <coding>
                  <system value="http://hl7.org/fhir/observation-category"></system>
                  <code value="vital_signs"></code>
                  <display value="Vital Signs"></display>
               </coding>
            </category>
            <code>
               <coding>
                  <system value="http://loinc.org"></system>
                  <code value="75186-7"></code>
                  <display value="Vital Sign"></display>
               </coding>
            </code>
            <subject>
               <reference value="10050755"></reference>
            </subject>
            <effectiveDateTime value="2134-02-26T00:00:00+00:00"></effectiveDateTime>
            <valueCodeableConcept>
               <coding>
                  <system value="https://www.medizininformatik-initiative.de/fhir/core/CodeSystem/Vitalstatus"></system>
                  <code value="X"></code>
                  <display value="unbekannt"></display>
               </coding>
            </valueCodeableConcept>
         </Observation>
      </resource>
      <request>
         <method value="POST"></method>
         <url value="Observation"></url>
      </request>
   </entry>
   <entry>
      <resource>
         <Observation xmlns="http://hl7.org/fhir">
            <meta>
               <profile value="https://www.medizininformatik-initiative.de/fhir/core/modul-person/StructureDefinition/Vitalstatus"></profile>
            </meta>
            <partOf>
               <reference value="20050796"></reference>
            </partOf>
            <status value="final"></status>
            <category>
               <coding>
                  <system value="http://terminology.hl7.org/CodeSystem/observation-category"></system>
                  <code value="survey"></code>
                  <display value="Survey"></display>
               </coding>
            </category>
            <category>
               <coding>
                  <system value="http://hl7.org/fhir/observation-category"></system>
                  <code value="vital_signs"></code>
                  <display value="Vital Signs"></display>
               </coding>
            </category>
            <code>
               <coding>
                  <system value="http://loinc.org"></system>
                  <code value="8867-4"></code>
                  <display value="Heart Rate"></display>
               </coding>
            </code>
            <subject>
               <reference value="10050755"></reference>
            </subject>
            <effectiveDateTime value="2134-02-26T00:00:00+00:00"></effectiveDateTime>
            <valueCodeableConcept>
               <coding>
                  <system value="https://www.medizininformatik-initiative.de/fhir/core/CodeSystem/Vitalstatus"></system>
                  <code value="X"></code>
                  <display value="unbekannt"></display>
               </coding>
            </valueCodeableConcept>
         </Observation>
      </resource>
      <request>
         <method value="POST"></method>
         <url value="Observation"></url>
      </request>
   </entry>
   <entry>
      <resource>
         <Observation xmlns="http://hl7.org/fhir">
            <meta>
               <profile value="https://www.medizininformatik-initiative.de/fhir/core/modul-person/StructureDefinition/Vitalstatus"></profile>
            </meta>
            <partOf>
               <reference value="20050796"></reference>
            </partOf>
            <status value="final"></status>
            <category>
               <coding>
                  <system value="http://terminology.hl7.org/CodeSystem/observation-category"></system>
                  <code value="survey"></code>
                  <display value="Survey"></display>
               </coding>
            </category>
            <category>
               <coding>
                  <system value="http://hl7.org/fhir/observation-category"></system>
                  <code value="vital_signs"></code>
                  <display value="Vital Signs"></display>
               </coding>
            </category>
            <code>
               <coding>
                  <system value="http://loinc.org"></system>
                  <code value="9279-1"></code>
                  <display value="Respiratory Rate"></display>
               </coding>
            </code>
            <subject>
               <reference value="10050755"></reference>
            </subject>
            <effectiveDateTime value="2134-02-26T00:00:00+00:00"></effectiveDateTime>
            <valueCodeableConcept>
               <coding>
                  <system value="https://www.medizininformatik-initiative.de/fhir/core/CodeSystem/Vitalstatus"></system>
                  <code value="X"></code>
                  <display value="unbekannt"></display>
               </coding>
            </valueCodeableConcept>
         </Observation>
      </resource>
      <request>
         <method value="POST"></method>
         <url value="Observation"></url>
      </request>
   </entry>
   <entry>
      <resource>
         <Observation xmlns="http://hl7.org/fhir">
            <meta>
               <profile value="https://www.medizininformatik-initiative.de/fhir/core/modul-person/StructureDefinition/Vitalstatus"></profile>
            </meta>
            <partOf>
               <reference value="20050796"></reference>
            </partOf>
            <status value="final"></status>
            <category>
               <coding>
                  <system value="http://terminology.hl7.org/CodeSystem/observation-category"></system>
                  <code value="survey"></code>
                  <display value="Survey"></display>
               </coding>
            </category>
            <category>
               <coding>
                  <system value="http://hl7.org/fhir/observation-category"></system>
                  <code value="vital_signs"></code>
                  <display value="Vital Signs"></display>
               </coding>
            </category>
            <code>
               <coding>
                  <system value="http://loinc.org"></system>
                  <code value="75186-7"></code>
                  <display value="Vital Sign"></display>
               </coding>
            </code>
            <subject>
               <reference value="10050755"></reference>
            </subject>
            <effectiveDateTime value="2134-02-26T00:00:00+00:00"></effectiveDateTime>
            <valueCodeableConcept>
               <coding>
                  <system value="https://www.medizininformatik-initiative.de/fhir/core/CodeSystem/Vitalstatus"></system>
                  <code value="X"></code>
                  <display value="unbekannt"></display>
               </coding>
            </valueCodeableConcept>
         </Observation>
      </resource>
      <request>
         <method value="POST"></method>
         <url value="Observation"></url>
      </request>
   </entry>
   <entry>
      <resource>
         <Observation xmlns="http://hl7.org/fhir">
            <meta>
               <profile value="https://www.medizininformatik-initiative.de/fhir/core/modul-person/StructureDefinition/Vitalstatus"></profile>
            </meta>
            <partOf>
               <reference value="20050796"></reference>
            </partOf>
            <status value="final"></status>
            <category>
               <coding>
                  <system value="http://terminology.hl7.org/CodeSystem/observation-category"></system>
                  <code value="survey"></code>
                  <display value="Survey"></display>
               </coding>
            </category>
            <category>
               <coding>
                  <system value="http://hl7.org/fhir/observation-category"></system>
                  <code value="vital_signs"></code>
                  <display value="Vital Signs"></display>
               </coding>
            </category>
            <code>
               <coding>
                  <system value="http://loinc.org"></system>
                  <code value="8867-4"></code>
                  <display value="Heart Rate"></display>
               </coding>
            </code>
            <subject>
               <reference value="10050755"></reference>
            </subject>
            <effectiveDateTime value="2134-02-26T00:00:00+00:00"></effectiveDateTime>
            <valueCodeableConcept>
               <coding>
                  <system value="https://www.medizininformatik-initiative.de/fhir/core/CodeSystem/Vitalstatus"></system>
                  <code value="X"></code>
                  <display value="unbekannt"></display>
               </coding>
            </valueCodeableConcept>
         </Observation>
      </resource>
      <request>
         <method value="POST"></method>
         <url value="Observation"></url>
      </request>
   </entry>
   <entry>
      <resource>
         <Observation xmlns="http://hl7.org/fhir">
            <meta>
               <profile value="https://www.medizininformatik-initiative.de/fhir/core/modul-person/StructureDefinition/Vitalstatus"></profile>
            </meta>
            <partOf>
               <reference value="20050796"></reference>
            </partOf>
            <status value="final"></status>
            <category>
               <coding>
                  <system value="http://terminology.hl7.org/CodeSystem/observation-category"></system>
                  <code value="survey"></code>
                  <display value="Survey"></display>
               </coding>
            </category>
            <category>
               <coding>
                  <system value="http://hl7.org/fhir/observation-category"></system>
                  <code value="vital_signs"></code>
                  <display value="Vital Signs"></display>
               </coding>
            </category>
            <code>
               <coding>
                  <system value="http://loinc.org"></system>
                  <code value="9279-1"></code>
                  <display value="Respiratory Rate"></display>
               </coding>
            </code>
            <subject>
               <reference value="10050755"></reference>
            </subject>
            <effectiveDateTime value="2134-02-26T00:00:00+00:00"></effectiveDateTime>
            <valueCodeableConcept>
               <coding>
                  <system value="https://www.medizininformatik-initiative.de/fhir/core/CodeSystem/Vitalstatus"></system>
                  <code value="X"></code>
                  <display value="unbekannt"></display>
               </coding>
            </valueCodeableConcept>
         </Observation>
      </resource>
      <request>
         <method value="POST"></method>
         <url value="Observation"></url>
      </request>
   </entry>
   <entry>
      <resource>
         <Observation xmlns="http://hl7.org/fhir">
            <meta>
               <profile value="https://www.medizininformatik-initiative.de/fhir/core/modul-person/StructureDefinition/Vitalstatus"></profile>
            </meta>
            <partOf>
               <reference value="20050796"></reference>
            </partOf>
            <status value="final"></status>
            <category>
               <coding>
                  <system value="http://terminology.hl7.org/CodeSystem/observation-category"></system>
                  <code value="survey"></code>
                  <display value="Survey"></display>
               </coding>
            </category>
            <category>
               <coding>
                  <system value="http://hl7.org/fhir/observation-category"></system>
                  <code value="vital_signs"></code>
                  <display value="Vital Signs"></display>
               </coding>
            </category>
            <code>
               <coding>
                  <system value="http://loinc.org"></system>
                  <code value="8462-4"></code>
                  <display value="Systolic Blood Pressure"></display>
               </coding>
            </code>
            <subject>
               <reference value="10050755"></reference>
            </subject>
            <effectiveDateTime value="2134-02-26T00:00:00+00:00"></effectiveDateTime>
            <valueCodeableConcept>
               <coding>
                  <system value="https://www.medizininformatik-initiative.de/fhir/core/CodeSystem/Vitalstatus"></system>
                  <code value="X"></code>
                  <display value="unbekannt"></display>
               </coding>
            </valueCodeableConcept>
         </Observation>
      </resource>
      <request>
         <method value="POST"></method>
         <url value="Observation"></url>
      </request>
   </entry>
   <entry>
      <resource>
         <Observation xmlns="http://hl7.org/fhir">
            <meta>
               <profile value="https://www.medizininformatik-initiative.de/fhir/core/modul-person/StructureDefinition/Vitalstatus"></profile>
            </meta>
            <partOf>
               <reference value="20050796"></reference>
            </partOf>
            <status value="final"></status>
            <category>
               <coding>
                  <system value="http://terminology.hl7.org/CodeSystem/observation-category"></system>
                  <code value="survey"></code>
                  <display value="Survey"></display>
               </coding>
            </category>
            <category>
               <coding>
                  <system value="http://hl7.org/fhir/observation-category"></system>
                  <code value="vital_signs"></code>
                  <display value="Vital Signs"></display>
               </coding>
            </category>
            <code>
               <coding>
                  <system value="http://loinc.org"></system>
                  <code value="8480-6"></code>
                  <display value="Diastolic Blood Pressure"></display>
               </coding>
            </code>
            <subject>
               <reference value="10050755"></reference>
            </subject>
            <effectiveDateTime value="2134-02-26T00:00:00+00:00"></effectiveDateTime>
            <valueCodeableConcept>
               <coding>
                  <system value="https://www.medizininformatik-initiative.de/fhir/core/CodeSystem/Vitalstatus"></system>
                  <code value="X"></code>
                  <display value="unbekannt"></display>
               </coding>
            </valueCodeableConcept>
         </Observation>
      </resource>
      <request>
         <method value="POST"></method>
         <url value="Observation"></url>
      </request>
   </entry>
   <entry>
      <resource>
         <Observation xmlns="http://hl7.org/fhir">
            <meta>
               <profile value="https://www.medizininformatik-initiative.de/fhir/core/modul-person/StructureDefinition/Vitalstatus"></profile>
            </meta>
            <partOf>
               <reference value="20050796"></reference>
            </partOf>
            <status value="final"></status>
            <category>
               <coding>
                  <system value="http://terminology.hl7.org/CodeSystem/observation-category"></system>
                  <code value="survey"></code>
                  <display value="Survey"></display>
               </coding>
            </category>
            <category>
               <coding>
                  <system value="http://hl7.org/fhir/observation-category"></system>
                  <code value="vital_signs"></code>
                  <display value="Vital Signs"></display>
               </coding>
            </category>
            <code>
               <coding>
                  <system value="http://loinc.org"></system>
                  <code value="75186-7"></code>
                  <display value="Vital Sign"></display>
               </coding>
            </code>
            <subject>
               <reference value="10050755"></reference>
            </subject>
            <effectiveDateTime value="2134-02-26T00:00:00+00:00"></effectiveDateTime>
            <valueCodeableConcept>
               <coding>
                  <system value="https://www.medizininformatik-initiative.de/fhir/core/CodeSystem/Vitalstatus"></system>
                  <code value="X"></code>
                  <display value="unbekannt"></display>
               </coding>
            </valueCodeableConcept>
         </Observation>
      </resource>
      <request>
         <method value="POST"></method>
         <url value="Observation"></url>
      </request>
   </entry>
   <entry>
      <resource>
         <Observation xmlns="http://hl7.org/fhir">
            <meta>
               <profile value="https://www.medizininformatik-initiative.de/fhir/core/modul-person/StructureDefinition/Vitalstatus"></profile>
            </meta>
            <partOf>
               <reference value="20050796"></reference>
            </partOf>
            <status value="final"></status>
            <category>
               <coding>
                  <system value="http://terminology.hl7.org/CodeSystem/observation-category"></system>
                  <code value="survey"></code>
                  <display value="Survey"></display>
               </coding>
            </category>
            <category>
               <coding>
                  <system value="http://hl7.org/fhir/observation-category"></system>
                  <code value="vital_signs"></code>
                  <display value="Vital Signs"></display>
               </coding>
            </category>
            <code>
               <coding>
                  <system value="http://loinc.org"></system>
                  <code value="8867-4"></code>
                  <display value="Heart Rate"></display>
               </coding>
            </code>
            <subject>
               <reference value="10050755"></reference>
            </subject>
            <effectiveDateTime value="2134-02-26T00:00:00+00:00"></effectiveDateTime>
            <valueCodeableConcept>
               <coding>
                  <system value="https://www.medizininformatik-initiative.de/fhir/core/CodeSystem/Vitalstatus"></system>
                  <code value="X"></code>
                  <display value="unbekannt"></display>
               </coding>
            </valueCodeableConcept>
         </Observation>
      </resource>
      <request>
         <method value="POST"></method>
         <url value="Observation"></url>
      </request>
   </entry>
   <entry>
      <resource>
         <Observation xmlns="http://hl7.org/fhir">
            <meta>
               <profile value="https://www.medizininformatik-initiative.de/fhir/core/modul-person/StructureDefinition/Vitalstatus"></profile>
            </meta>
            <partOf>
               <reference value="20050796"></reference>
            </partOf>
            <status value="final"></status>
            <category>
               <coding>
                  <system value="http://terminology.hl7.org/CodeSystem/observation-category"></system>
                  <code value="survey"></code>
                  <display value="Survey"></display>
               </coding>
            </category>
            <category>
               <coding>
                  <system value="http://hl7.org/fhir/observation-category"></system>
                  <code value="vital_signs"></code>
                  <display value="Vital Signs"></display>
               </coding>
            </category>
            <code>
               <coding>
                  <system value="http://loinc.org"></system>
                  <code value="9279-1"></code>
                  <display value="Respiratory Rate"></display>
               </coding>
            </code>
            <subject>
               <reference value="10050755"></reference>
            </subject>
            <effectiveDateTime value="2134-02-26T00:00:00+00:00"></effectiveDateTime>
            <valueCodeableConcept>
               <coding>
                  <system value="https://www.medizininformatik-initiative.de/fhir/core/CodeSystem/Vitalstatus"></system>
                  <code value="X"></code>
                  <display value="unbekannt"></display>
               </coding>
            </valueCodeableConcept>
         </Observation>
      </resource>
      <request>
         <method value="POST"></method>
         <url value="Observation"></url>
      </request>
   </entry>
   <entry>
      <resource>
         <Observation xmlns="http://hl7.org/fhir">
            <meta>
               <profile value="https://www.medizininformatik-initiative.de/fhir/core/modul-person/StructureDefinition/Vitalstatus"></profile>
            </meta>
            <partOf>
               <reference value="20050796"></reference>
            </partOf>
            <status value="final"></status>
            <category>
               <coding>
                  <system value="http://terminology.hl7.org/CodeSystem/observation-category"></system>
                  <code value="survey"></code>
                  <display value="Survey"></display>
               </coding>
            </category>
            <category>
               <coding>
                  <system value="http://hl7.org/fhir/observation-category"></system>
                  <code value="vital_signs"></code>
                  <display value="Vital Signs"></display>
               </coding>
            </category>
            <code>
               <coding>
                  <system value="http://loinc.org"></system>
                  <code value="75186-7"></code>
                  <display value="Vital Sign"></display>
               </coding>
            </code>
            <subject>
               <reference value="10050755"></reference>
            </subject>
            <effectiveDateTime value="2134-02-26T00:00:00+00:00"></effectiveDateTime>
            <valueCodeableConcept>
               <coding>
                  <system value="https://www.medizininformatik-initiative.de/fhir/core/CodeSystem/Vitalstatus"></system>
                  <code value="X"></code>
                  <display value="unbekannt"></display>
               </coding>
            </valueCodeableConcept>
         </Observation>
      </resource>
      <request>
         <method value="POST"></method>
         <url value="Observation"></url>
      </request>
   </entry>
   <entry>
      <resource>
         <Observation xmlns="http://hl7.org/fhir">
            <meta>
               <profile value="https://www.medizininformatik-initiative.de/fhir/core/modul-person/StructureDefinition/Vitalstatus"></profile>
            </meta>
            <partOf>
               <reference value="20050796"></reference>
            </partOf>
            <status value="final"></status>
            <category>
               <coding>
                  <system value="http://terminology.hl7.org/CodeSystem/observation-category"></system>
                  <code value="survey"></code>
                  <display value="Survey"></display>
               </coding>
            </category>
            <category>
               <coding>
                  <system value="http://hl7.org/fhir/observation-category"></system>
                  <code value="vital_signs"></code>
                  <display value="Vital Signs"></display>
               </coding>
            </category>
            <code>
               <coding>
                  <system value="http://loinc.org"></system>
                  <code value="8462-4"></code>
                  <display value="Systolic Blood Pressure"></display>
               </coding>
            </code>
            <subject>
               <reference value="10050755"></reference>
            </subject>
            <effectiveDateTime value="2134-02-26T00:00:00+00:00"></effectiveDateTime>
            <valueCodeableConcept>
               <coding>
                  <system value="https://www.medizininformatik-initiative.de/fhir/core/CodeSystem/Vitalstatus"></system>
                  <code value="X"></code>
                  <display value="unbekannt"></display>
               </coding>
            </valueCodeableConcept>
         </Observation>
      </resource>
      <request>
         <method value="POST"></method>
         <url value="Observation"></url>
      </request>
   </entry>
   <entry>
      <resource>
         <Observation xmlns="http://hl7.org/fhir">
            <meta>
               <profile value="https://www.medizininformatik-initiative.de/fhir/core/modul-person/StructureDefinition/Vitalstatus"></profile>
            </meta>
            <partOf>
               <reference value="20050796"></reference>
            </partOf>
            <status value="final"></status>
            <category>
               <coding>
                  <system value="http://terminology.hl7.org/CodeSystem/observation-category"></system>
                  <code value="survey"></code>
                  <display value="Survey"></display>
               </coding>
            </category>
            <category>
               <coding>
                  <system value="http://hl7.org/fhir/observation-category"></system>
                  <code value="vital_signs"></code>
                  <display value="Vital Signs"></display>
               </coding>
            </category>
            <code>
               <coding>
                  <system value="http://loinc.org"></system>
                  <code value="8480-6"></code>
                  <display value="Diastolic Blood Pressure"></display>
               </coding>
            </code>
            <subject>
               <reference value="10050755"></reference>
            </subject>
            <effectiveDateTime value="2134-02-26T00:00:00+00:00"></effectiveDateTime>
            <valueCodeableConcept>
               <coding>
                  <system value="https://www.medizininformatik-initiative.de/fhir/core/CodeSystem/Vitalstatus"></system>
                  <code value="X"></code>
                  <display value="unbekannt"></display>
               </coding>
            </valueCodeableConcept>
         </Observation>
      </resource>
      <request>
         <method value="POST"></method>
         <url value="Observation"></url>
      </request>
   </entry>
   <entry>
      <resource>
         <Observation xmlns="http://hl7.org/fhir">
            <meta>
               <profile value="https://www.medizininformatik-initiative.de/fhir/core/modul-person/StructureDefinition/Vitalstatus"></profile>
            </meta>
            <partOf>
               <reference value="20050796"></reference>
            </partOf>
            <status value="final"></status>
            <category>
               <coding>
                  <system value="http://terminology.hl7.org/CodeSystem/observation-category"></system>
                  <code value="survey"></code>
                  <display value="Survey"></display>
               </coding>
            </category>
            <category>
               <coding>
                  <system value="http://hl7.org/fhir/observation-category"></system>
                  <code value="vital_signs"></code>
                  <display value="Vital Signs"></display>
               </coding>
            </category>
            <code>
               <coding>
                  <system value="http://loinc.org"></system>
                  <code value="75186-7"></code>
                  <display value="Vital Sign"></display>
               </coding>
            </code>
            <subject>
               <reference value="10050755"></reference>
            </subject>
            <effectiveDateTime value="2134-02-26T00:00:00+00:00"></effectiveDateTime>
            <valueCodeableConcept>
               <coding>
                  <system value="https://www.medizininformatik-initiative.de/fhir/core/CodeSystem/Vitalstatus"></system>
                  <code value="X"></code>
                  <display value="unbekannt"></display>
               </coding>
            </valueCodeableConcept>
         </Observation>
      </resource>
      <request>
         <method value="POST"></method>
         <url value="Observation"></url>
      </request>
   </entry>
   <entry>
      <resource>
         <Observation xmlns="http://hl7.org/fhir">
            <meta>
               <profile value="https://www.medizininformatik-initiative.de/fhir/core/modul-person/StructureDefinition/Vitalstatus"></profile>
            </meta>
            <partOf>
               <reference value="20050796"></reference>
            </partOf>
            <status value="final"></status>
            <category>
               <coding>
                  <system value="http://terminology.hl7.org/CodeSystem/observation-category"></system>
                  <code value="survey"></code>
                  <display value="Survey"></display>
               </coding>
            </category>
            <category>
               <coding>
                  <system value="http://hl7.org/fhir/observation-category"></system>
                  <code value="vital_signs"></code>
                  <display value="Vital Signs"></display>
               </coding>
            </category>
            <code>
               <coding>
                  <system value="http://loinc.org"></system>
                  <code value="8867-4"></code>
                  <display value="Heart Rate"></display>
               </coding>
            </code>
            <subject>
               <reference value="10050755"></reference>
            </subject>
            <effectiveDateTime value="2134-02-26T00:00:00+00:00"></effectiveDateTime>
            <valueCodeableConcept>
               <coding>
                  <system value="https://www.medizininformatik-initiative.de/fhir/core/CodeSystem/Vitalstatus"></system>
                  <code value="X"></code>
                  <display value="unbekannt"></display>
               </coding>
            </valueCodeableConcept>
         </Observation>
      </resource>
      <request>
         <method value="POST"></method>
         <url value="Observation"></url>
      </request>
   </entry>
   <entry>
      <resource>
         <Observation xmlns="http://hl7.org/fhir">
            <meta>
               <profile value="https://www.medizininformatik-initiative.de/fhir/core/modul-person/StructureDefinition/Vitalstatus"></profile>
            </meta>
            <partOf>
               <reference value="20050796"></reference>
            </partOf>
            <status value="final"></status>
            <category>
               <coding>
                  <system value="http://terminology.hl7.org/CodeSystem/observation-category"></system>
                  <code value="survey"></code>
                  <display value="Survey"></display>
               </coding>
            </category>
            <category>
               <coding>
                  <system value="http://hl7.org/fhir/observation-category"></system>
                  <code value="vital_signs"></code>
                  <display value="Vital Signs"></display>
               </coding>
            </category>
            <code>
               <coding>
                  <system value="http://loinc.org"></system>
                  <code value="9279-1"></code>
                  <display value="Respiratory Rate"></display>
               </coding>
            </code>
            <subject>
               <reference value="10050755"></reference>
            </subject>
            <effectiveDateTime value="2134-02-26T00:00:00+00:00"></effectiveDateTime>
            <valueCodeableConcept>
               <coding>
                  <system value="https://www.medizininformatik-initiative.de/fhir/core/CodeSystem/Vitalstatus"></system>
                  <code value="X"></code>
                  <display value="unbekannt"></display>
               </coding>
            </valueCodeableConcept>
         </Observation>
      </resource>
      <request>
         <method value="POST"></method>
         <url value="Observation"></url>
      </request>
   </entry>
   <entry>
      <resource>
         <Observation xmlns="http://hl7.org/fhir">
            <meta>
               <profile value="https://www.medizininformatik-initiative.de/fhir/core/modul-person/StructureDefinition/Vitalstatus"></profile>
            </meta>
            <partOf>
               <reference value="20050796"></reference>
            </partOf>
            <status value="final"></status>
            <category>
               <coding>
                  <system value="http://terminology.hl7.org/CodeSystem/observation-category"></system>
                  <code value="survey"></code>
                  <display value="Survey"></display>
               </coding>
            </category>
            <category>
               <coding>
                  <system value="http://hl7.org/fhir/observation-category"></system>
                  <code value="vital_signs"></code>
                  <display value="Vital Signs"></display>
               </coding>
            </category>
            <code>
               <coding>
                  <system value="http://loinc.org"></system>
                  <code value="8462-4"></code>
                  <display value="Systolic Blood Pressure"></display>
               </coding>
            </code>
            <subject>
               <reference value="10050755"></reference>
            </subject>
            <effectiveDateTime value="2134-02-26T00:00:00+00:00"></effectiveDateTime>
            <valueCodeableConcept>
               <coding>
                  <system value="https://www.medizininformatik-initiative.de/fhir/core/CodeSystem/Vitalstatus"></system>
                  <code value="X"></code>
                  <display value="unbekannt"></display>
               </coding>
            </valueCodeableConcept>
         </Observation>
      </resource>
      <request>
         <method value="POST"></method>
         <url value="Observation"></url>
      </request>
   </entry>
   <entry>
      <resource>
         <Observation xmlns="http://hl7.org/fhir">
            <meta>
               <profile value="https://www.medizininformatik-initiative.de/fhir/core/modul-person/StructureDefinition/Vitalstatus"></profile>
            </meta>
            <partOf>
               <reference value="20050796"></reference>
            </partOf>
            <status value="final"></status>
            <category>
               <coding>
                  <system value="http://terminology.hl7.org/CodeSystem/observation-category"></system>
                  <code value="survey"></code>
                  <display value="Survey"></display>
               </coding>
            </category>
            <category>
               <coding>
                  <system value="http://hl7.org/fhir/observation-category"></system>
                  <code value="vital_signs"></code>
                  <display value="Vital Signs"></display>
               </coding>
            </category>
            <code>
               <coding>
                  <system value="http://loinc.org"></system>
                  <code value="8480-6"></code>
                  <display value="Diastolic Blood Pressure"></display>
               </coding>
            </code>
            <subject>
               <reference value="10050755"></reference>
            </subject>
            <effectiveDateTime value="2134-02-26T00:00:00+00:00"></effectiveDateTime>
            <valueCodeableConcept>
               <coding>
                  <system value="https://www.medizininformatik-initiative.de/fhir/core/CodeSystem/Vitalstatus"></system>
                  <code value="X"></code>
                  <display value="unbekannt"></display>
               </coding>
            </valueCodeableConcept>
         </Observation>
      </resource>
      <request>
         <method value="POST"></method>
         <url value="Observation"></url>
      </request>
   </entry>
   <entry>
      <resource>
         <Observation xmlns="http://hl7.org/fhir">
            <meta>
               <profile value="https://www.medizininformatik-initiative.de/fhir/core/modul-person/StructureDefinition/Vitalstatus"></profile>
            </meta>
            <partOf>
               <reference value="20050796"></reference>
            </partOf>
            <status value="final"></status>
            <category>
               <coding>
                  <system value="http://terminology.hl7.org/CodeSystem/observation-category"></system>
                  <code value="survey"></code>
                  <display value="Survey"></display>
               </coding>
            </category>
            <category>
               <coding>
                  <system value="http://hl7.org/fhir/observation-category"></system>
                  <code value="vital_signs"></code>
                  <display value="Vital Signs"></display>
               </coding>
            </category>
            <code>
               <coding>
                  <system value="http://loinc.org"></system>
                  <code value="75186-7"></code>
                  <display value="Vital Sign"></display>
               </coding>
            </code>
            <subject>
               <reference value="10050755"></reference>
            </subject>
            <effectiveDateTime value="2134-02-26T00:00:00+00:00"></effectiveDateTime>
            <valueCodeableConcept>
               <coding>
                  <system value="https://www.medizininformatik-initiative.de/fhir/core/CodeSystem/Vitalstatus"></system>
                  <code value="X"></code>
                  <display value="unbekannt"></display>
               </coding>
            </valueCodeableConcept>
         </Observation>
      </resource>
      <request>
         <method value="POST"></method>
         <url value="Observation"></url>
      </request>
   </entry>
   <entry>
      <resource>
         <Observation xmlns="http://hl7.org/fhir">
            <meta>
               <profile value="https://www.medizininformatik-initiative.de/fhir/core/modul-person/StructureDefinition/Vitalstatus"></profile>
            </meta>
            <partOf>
               <reference value="20050796"></reference>
            </partOf>
            <status value="final"></status>
            <category>
               <coding>
                  <system value="http://terminology.hl7.org/CodeSystem/observation-category"></system>
                  <code value="survey"></code>
                  <display value="Survey"></display>
               </coding>
            </category>
            <category>
               <coding>
                  <system value="http://hl7.org/fhir/observation-category"></system>
                  <code value="vital_signs"></code>
                  <display value="Vital Signs"></display>
               </coding>
            </category>
            <code>
               <coding>
                  <system value="http://loinc.org"></system>
                  <code value="75186-7"></code>
                  <display value="Vital Sign"></display>
               </coding>
            </code>
            <subject>
               <reference value="10050755"></reference>
            </subject>
            <effectiveDateTime value="2134-02-26T00:00:00+00:00"></effectiveDateTime>
            <valueCodeableConcept>
               <coding>
                  <system value="https://www.medizininformatik-initiative.de/fhir/core/CodeSystem/Vitalstatus"></system>
                  <code value="X"></code>
                  <display value="unbekannt"></display>
               </coding>
            </valueCodeableConcept>
         </Observation>
      </resource>
      <request>
         <method value="POST"></method>
         <url value="Observation"></url>
      </request>
   </entry>
   <entry>
      <resource>
         <Observation xmlns="http://hl7.org/fhir">
            <meta>
               <profile value="https://www.medizininformatik-initiative.de/fhir/core/modul-person/StructureDefinition/Vitalstatus"></profile>
            </meta>
            <partOf>
               <reference value="20050796"></reference>
            </partOf>
            <status value="final"></status>
            <category>
               <coding>
                  <system value="http://terminology.hl7.org/CodeSystem/observation-category"></system>
                  <code value="survey"></code>
                  <display value="Survey"></display>
               </coding>
            </category>
            <category>
               <coding>
                  <system value="http://hl7.org/fhir/observation-category"></system>
                  <code value="vital_signs"></code>
                  <display value="Vital Signs"></display>
               </coding>
            </category>
            <code>
               <coding>
                  <system value="http://loinc.org"></system>
                  <code value="75186-7"></code>
                  <display value="Vital Sign"></display>
               </coding>
            </code>
            <subject>
               <reference value="10050755"></reference>
            </subject>
            <effectiveDateTime value="2134-02-26T00:00:00+00:00"></effectiveDateTime>
            <valueCodeableConcept>
               <coding>
                  <system value="https://www.medizininformatik-initiative.de/fhir/core/CodeSystem/Vitalstatus"></system>
                  <code value="X"></code>
                  <display value="unbekannt"></display>
               </coding>
            </valueCodeableConcept>
         </Observation>
      </resource>
      <request>
         <method value="POST"></method>
         <url value="Observation"></url>
      </request>
   </entry>
   <entry>
      <resource>
         <Observation xmlns="http://hl7.org/fhir">
            <meta>
               <profile value="https://www.medizininformatik-initiative.de/fhir/core/modul-person/StructureDefinition/Vitalstatus"></profile>
            </meta>
            <partOf>
               <reference value="20050796"></reference>
            </partOf>
            <status value="final"></status>
            <category>
               <coding>
                  <system value="http://terminology.hl7.org/CodeSystem/observation-category"></system>
                  <code value="survey"></code>
                  <display value="Survey"></display>
               </coding>
            </category>
            <category>
               <coding>
                  <system value="http://hl7.org/fhir/observation-category"></system>
                  <code value="vital_signs"></code>
                  <display value="Vital Signs"></display>
               </coding>
            </category>
            <code>
               <coding>
                  <system value="http://loinc.org"></system>
                  <code value="75186-7"></code>
                  <display value="Vital Sign"></display>
               </coding>
            </code>
            <subject>
               <reference value="10050755"></reference>
            </subject>
            <effectiveDateTime value="2134-02-26T00:00:00+00:00"></effectiveDateTime>
            <valueCodeableConcept>
               <coding>
                  <system value="https://www.medizininformatik-initiative.de/fhir/core/CodeSystem/Vitalstatus"></system>
                  <code value="X"></code>
                  <display value="unbekannt"></display>
               </coding>
            </valueCodeableConcept>
         </Observation>
      </resource>
      <request>
         <method value="POST"></method>
         <url value="Observation"></url>
      </request>
   </entry>
   <entry>
      <resource>
         <Observation xmlns="http://hl7.org/fhir">
            <meta>
               <profile value="https://www.medizininformatik-initiative.de/fhir/core/modul-person/StructureDefinition/Vitalstatus"></profile>
            </meta>
            <partOf>
               <reference value="20050796"></reference>
            </partOf>
            <status value="final"></status>
            <category>
               <coding>
                  <system value="http://terminology.hl7.org/CodeSystem/observation-category"></system>
                  <code value="survey"></code>
                  <display value="Survey"></display>
               </coding>
            </category>
            <category>
               <coding>
                  <system value="http://hl7.org/fhir/observation-category"></system>
                  <code value="vital_signs"></code>
                  <display value="Vital Signs"></display>
               </coding>
            </category>
            <code>
               <coding>
                  <system value="http://loinc.org"></system>
                  <code value="75186-7"></code>
                  <display value="Vital Sign"></display>
               </coding>
            </code>
            <subject>
               <reference value="10050755"></reference>
            </subject>
            <effectiveDateTime value="2134-02-26T00:00:00+00:00"></effectiveDateTime>
            <valueCodeableConcept>
               <coding>
                  <system value="https://www.medizininformatik-initiative.de/fhir/core/CodeSystem/Vitalstatus"></system>
                  <code value="X"></code>
                  <display value="unbekannt"></display>
               </coding>
            </valueCodeableConcept>
         </Observation>
      </resource>
      <request>
         <method value="POST"></method>
         <url value="Observation"></url>
      </request>
   </entry>
   <entry>
      <resource>
         <Observation xmlns="http://hl7.org/fhir">
            <meta>
               <profile value="https://www.medizininformatik-initiative.de/fhir/core/modul-person/StructureDefinition/Vitalstatus"></profile>
            </meta>
            <partOf>
               <reference value="20050796"></reference>
            </partOf>
            <status value="final"></status>
            <category>
               <coding>
                  <system value="http://terminology.hl7.org/CodeSystem/observation-category"></system>
                  <code value="survey"></code>
                  <display value="Survey"></display>
               </coding>
            </category>
            <category>
               <coding>
                  <system value="http://hl7.org/fhir/observation-category"></system>
                  <code value="vital_signs"></code>
                  <display value="Vital Signs"></display>
               </coding>
            </category>
            <code>
               <coding>
                  <system value="http://loinc.org"></system>
                  <code value="75186-7"></code>
                  <display value="Vital Sign"></display>
               </coding>
            </code>
            <subject>
               <reference value="10050755"></reference>
            </subject>
            <effectiveDateTime value="2134-02-26T00:00:00+00:00"></effectiveDateTime>
            <valueCodeableConcept>
               <coding>
                  <system value="https://www.medizininformatik-initiative.de/fhir/core/CodeSystem/Vitalstatus"></system>
                  <code value="X"></code>
                  <display value="unbekannt"></display>
               </coding>
            </valueCodeableConcept>
         </Observation>
      </resource>
      <request>
         <method value="POST"></method>
         <url value="Observation"></url>
      </request>
   </entry>
   <entry>
      <resource>
         <Observation xmlns="http://hl7.org/fhir">
            <meta>
               <profile value="https://www.medizininformatik-initiative.de/fhir/core/modul-person/StructureDefinition/Vitalstatus"></profile>
            </meta>
            <partOf>
               <reference value="20050796"></reference>
            </partOf>
            <status value="final"></status>
            <category>
               <coding>
                  <system value="http://terminology.hl7.org/CodeSystem/observation-category"></system>
                  <code value="survey"></code>
                  <display value="Survey"></display>
               </coding>
            </category>
            <category>
               <coding>
                  <system value="http://hl7.org/fhir/observation-category"></system>
                  <code value="vital_signs"></code>
                  <display value="Vital Signs"></display>
               </coding>
            </category>
            <code>
               <coding>
                  <system value="http://loinc.org"></system>
                  <code value="75186-7"></code>
                  <display value="Vital Sign"></display>
               </coding>
            </code>
            <subject>
               <reference value="10050755"></reference>
            </subject>
            <effectiveDateTime value="2134-02-26T00:00:00+00:00"></effectiveDateTime>
            <valueCodeableConcept>
               <coding>
                  <system value="https://www.medizininformatik-initiative.de/fhir/core/CodeSystem/Vitalstatus"></system>
                  <code value="X"></code>
                  <display value="unbekannt"></display>
               </coding>
            </valueCodeableConcept>
         </Observation>
      </resource>
      <request>
         <method value="POST"></method>
         <url value="Observation"></url>
      </request>
   </entry>
   <entry>
      <resource>
         <Observation xmlns="http://hl7.org/fhir">
            <meta>
               <profile value="https://www.medizininformatik-initiative.de/fhir/core/modul-person/StructureDefinition/Vitalstatus"></profile>
            </meta>
            <partOf>
               <reference value="20050796"></reference>
            </partOf>
            <status value="final"></status>
            <category>
               <coding>
                  <system value="http://terminology.hl7.org/CodeSystem/observation-category"></system>
                  <code value="survey"></code>
                  <display value="Survey"></display>
               </coding>
            </category>
            <category>
               <coding>
                  <system value="http://hl7.org/fhir/observation-category"></system>
                  <code value="vital_signs"></code>
                  <display value="Vital Signs"></display>
               </coding>
            </category>
            <code>
               <coding>
                  <system value="http://loinc.org"></system>
                  <code value="75186-7"></code>
                  <display value="Vital Sign"></display>
               </coding>
            </code>
            <subject>
               <reference value="10050755"></reference>
            </subject>
            <effectiveDateTime value="2134-02-26T00:00:00+00:00"></effectiveDateTime>
            <valueCodeableConcept>
               <coding>
                  <system value="https://www.medizininformatik-initiative.de/fhir/core/CodeSystem/Vitalstatus"></system>
                  <code value="X"></code>
                  <display value="unbekannt"></display>
               </coding>
            </valueCodeableConcept>
         </Observation>
      </resource>
      <request>
         <method value="POST"></method>
         <url value="Observation"></url>
      </request>
   </entry>
   <entry>
      <resource>
         <Observation xmlns="http://hl7.org/fhir">
            <meta>
               <profile value="https://www.medizininformatik-initiative.de/fhir/core/modul-person/StructureDefinition/Vitalstatus"></profile>
            </meta>
            <partOf>
               <reference value="20050796"></reference>
            </partOf>
            <status value="final"></status>
            <category>
               <coding>
                  <system value="http://terminology.hl7.org/CodeSystem/observation-category"></system>
                  <code value="survey"></code>
                  <display value="Survey"></display>
               </coding>
            </category>
            <category>
               <coding>
                  <system value="http://hl7.org/fhir/observation-category"></system>
                  <code value="vital_signs"></code>
                  <display value="Vital Signs"></display>
               </coding>
            </category>
            <code>
               <coding>
                  <system value="http://loinc.org"></system>
                  <code value="75186-7"></code>
                  <display value="Vital Sign"></display>
               </coding>
            </code>
            <subject>
               <reference value="10050755"></reference>
            </subject>
            <effectiveDateTime value="2134-02-26T00:00:00+00:00"></effectiveDateTime>
            <valueCodeableConcept>
               <coding>
                  <system value="https://www.medizininformatik-initiative.de/fhir/core/CodeSystem/Vitalstatus"></system>
                  <code value="X"></code>
                  <display value="unbekannt"></display>
               </coding>
            </valueCodeableConcept>
         </Observation>
      </resource>
      <request>
         <method value="POST"></method>
         <url value="Observation"></url>
      </request>
   </entry>
   <entry>
      <resource>
         <Observation xmlns="http://hl7.org/fhir">
            <meta>
               <profile value="https://www.medizininformatik-initiative.de/fhir/core/modul-person/StructureDefinition/Vitalstatus"></profile>
            </meta>
            <partOf>
               <reference value="20050796"></reference>
            </partOf>
            <status value="final"></status>
            <category>
               <coding>
                  <system value="http://terminology.hl7.org/CodeSystem/observation-category"></system>
                  <code value="survey"></code>
                  <display value="Survey"></display>
               </coding>
            </category>
            <category>
               <coding>
                  <system value="http://hl7.org/fhir/observation-category"></system>
                  <code value="vital_signs"></code>
                  <display value="Vital Signs"></display>
               </coding>
            </category>
            <code>
               <coding>
                  <system value="http://loinc.org"></system>
                  <code value="75186-7"></code>
                  <display value="Vital Sign"></display>
               </coding>
            </code>
            <subject>
               <reference value="10050755"></reference>
            </subject>
            <effectiveDateTime value="2134-02-26T00:00:00+00:00"></effectiveDateTime>
            <valueCodeableConcept>
               <coding>
                  <system value="https://www.medizininformatik-initiative.de/fhir/core/CodeSystem/Vitalstatus"></system>
                  <code value="X"></code>
                  <display value="unbekannt"></display>
               </coding>
            </valueCodeableConcept>
         </Observation>
      </resource>
      <request>
         <method value="POST"></method>
         <url value="Observation"></url>
      </request>
   </entry>
   <entry>
      <resource>
         <Observation xmlns="http://hl7.org/fhir">
            <meta>
               <profile value="https://www.medizininformatik-initiative.de/fhir/core/modul-person/StructureDefinition/Vitalstatus"></profile>
            </meta>
            <partOf>
               <reference value="20050796"></reference>
            </partOf>
            <status value="final"></status>
            <category>
               <coding>
                  <system value="http://terminology.hl7.org/CodeSystem/observation-category"></system>
                  <code value="survey"></code>
                  <display value="Survey"></display>
               </coding>
            </category>
            <category>
               <coding>
                  <system value="http://hl7.org/fhir/observation-category"></system>
                  <code value="vital_signs"></code>
                  <display value="Vital Signs"></display>
               </coding>
            </category>
            <code>
               <coding>
                  <system value="http://loinc.org"></system>
                  <code value="75186-7"></code>
                  <display value="Vital Sign"></display>
               </coding>
            </code>
            <subject>
               <reference value="10050755"></reference>
            </subject>
            <effectiveDateTime value="2134-02-26T00:00:00+00:00"></effectiveDateTime>
            <valueCodeableConcept>
               <coding>
                  <system value="https://www.medizininformatik-initiative.de/fhir/core/CodeSystem/Vitalstatus"></system>
                  <code value="X"></code>
                  <display value="unbekannt"></display>
               </coding>
            </valueCodeableConcept>
         </Observation>
      </resource>
      <request>
         <method value="POST"></method>
         <url value="Observation"></url>
      </request>
   </entry>
   <entry>
      <resource>
         <Observation xmlns="http://hl7.org/fhir">
            <meta>
               <profile value="https://www.medizininformatik-initiative.de/fhir/core/modul-person/StructureDefinition/Vitalstatus"></profile>
            </meta>
            <partOf>
               <reference value="20050796"></reference>
            </partOf>
            <status value="final"></status>
            <category>
               <coding>
                  <system value="http://terminology.hl7.org/CodeSystem/observation-category"></system>
                  <code value="survey"></code>
                  <display value="Survey"></display>
               </coding>
            </category>
            <category>
               <coding>
                  <system value="http://hl7.org/fhir/observation-category"></system>
                  <code value="vital_signs"></code>
                  <display value="Vital Signs"></display>
               </coding>
            </category>
            <code>
               <coding>
                  <system value="http://loinc.org"></system>
                  <code value="75186-7"></code>
                  <display value="Vital Sign"></display>
               </coding>
            </code>
            <subject>
               <reference value="10050755"></reference>
            </subject>
            <effectiveDateTime value="2134-02-26T00:00:00+00:00"></effectiveDateTime>
            <valueCodeableConcept>
               <coding>
                  <system value="https://www.medizininformatik-initiative.de/fhir/core/CodeSystem/Vitalstatus"></system>
                  <code value="X"></code>
                  <display value="unbekannt"></display>
               </coding>
            </valueCodeableConcept>
         </Observation>
      </resource>
      <request>
         <method value="POST"></method>
         <url value="Observation"></url>
      </request>
   </entry>
   <entry>
      <resource>
         <Observation xmlns="http://hl7.org/fhir">
            <meta>
               <profile value="https://www.medizininformatik-initiative.de/fhir/core/modul-person/StructureDefinition/Vitalstatus"></profile>
            </meta>
            <partOf>
               <reference value="20050796"></reference>
            </partOf>
            <status value="final"></status>
            <category>
               <coding>
                  <system value="http://terminology.hl7.org/CodeSystem/observation-category"></system>
                  <code value="survey"></code>
                  <display value="Survey"></display>
               </coding>
            </category>
            <category>
               <coding>
                  <system value="http://hl7.org/fhir/observation-category"></system>
                  <code value="vital_signs"></code>
                  <display value="Vital Signs"></display>
               </coding>
            </category>
            <code>
               <coding>
                  <system value="http://loinc.org"></system>
                  <code value="75186-7"></code>
                  <display value="Vital Sign"></display>
               </coding>
            </code>
            <subject>
               <reference value="10050755"></reference>
            </subject>
            <effectiveDateTime value="2134-02-26T00:00:00+00:00"></effectiveDateTime>
            <valueCodeableConcept>
               <coding>
                  <system value="https://www.medizininformatik-initiative.de/fhir/core/CodeSystem/Vitalstatus"></system>
                  <code value="X"></code>
                  <display value="unbekannt"></display>
               </coding>
            </valueCodeableConcept>
         </Observation>
      </resource>
      <request>
         <method value="POST"></method>
         <url value="Observation"></url>
      </request>
   </entry>
   <entry>
      <resource>
         <Observation xmlns="http://hl7.org/fhir">
            <meta>
               <profile value="https://www.medizininformatik-initiative.de/fhir/core/modul-person/StructureDefinition/Vitalstatus"></profile>
            </meta>
            <partOf>
               <reference value="20050796"></reference>
            </partOf>
            <status value="final"></status>
            <category>
               <coding>
                  <system value="http://terminology.hl7.org/CodeSystem/observation-category"></system>
                  <code value="survey"></code>
                  <display value="Survey"></display>
               </coding>
            </category>
            <category>
               <coding>
                  <system value="http://hl7.org/fhir/observation-category"></system>
                  <code value="vital_signs"></code>
                  <display value="Vital Signs"></display>
               </coding>
            </category>
            <code>
               <coding>
                  <system value="http://loinc.org"></system>
                  <code value="75186-7"></code>
                  <display value="Vital Sign"></display>
               </coding>
            </code>
            <subject>
               <reference value="10050755"></reference>
            </subject>
            <effectiveDateTime value="2134-02-26T00:00:00+00:00"></effectiveDateTime>
            <valueCodeableConcept>
               <coding>
                  <system value="https://www.medizininformatik-initiative.de/fhir/core/CodeSystem/Vitalstatus"></system>
                  <code value="X"></code>
                  <display value="unbekannt"></display>
               </coding>
            </valueCodeableConcept>
         </Observation>
      </resource>
      <request>
         <method value="POST"></method>
         <url value="Observation"></url>
      </request>
   </entry>
   <entry>
      <resource>
         <Observation xmlns="http://hl7.org/fhir">
            <meta>
               <profile value="https://www.medizininformatik-initiative.de/fhir/core/modul-person/StructureDefinition/Vitalstatus"></profile>
            </meta>
            <partOf>
               <reference value="20050796"></reference>
            </partOf>
            <status value="final"></status>
            <category>
               <coding>
                  <system value="http://terminology.hl7.org/CodeSystem/observation-category"></system>
                  <code value="survey"></code>
                  <display value="Survey"></display>
               </coding>
            </category>
            <category>
               <coding>
                  <system value="http://hl7.org/fhir/observation-category"></system>
                  <code value="vital_signs"></code>
                  <display value="Vital Signs"></display>
               </coding>
            </category>
            <code>
               <coding>
                  <system value="http://loinc.org"></system>
                  <code value="75186-7"></code>
                  <display value="Vital Sign"></display>
               </coding>
            </code>
            <subject>
               <reference value="10050755"></reference>
            </subject>
            <effectiveDateTime value="2134-02-26T00:00:00+00:00"></effectiveDateTime>
            <valueCodeableConcept>
               <coding>
                  <system value="https://www.medizininformatik-initiative.de/fhir/core/CodeSystem/Vitalstatus"></system>
                  <code value="X"></code>
                  <display value="unbekannt"></display>
               </coding>
            </valueCodeableConcept>
         </Observation>
      </resource>
      <request>
         <method value="POST"></method>
         <url value="Observation"></url>
      </request>
   </entry>
   <entry>
      <resource>
         <Observation xmlns="http://hl7.org/fhir">
            <meta>
               <profile value="https://www.medizininformatik-initiative.de/fhir/core/modul-person/StructureDefinition/Vitalstatus"></profile>
            </meta>
            <partOf>
               <reference value="20050796"></reference>
            </partOf>
            <status value="final"></status>
            <category>
               <coding>
                  <system value="http://terminology.hl7.org/CodeSystem/observation-category"></system>
                  <code value="survey"></code>
                  <display value="Survey"></display>
               </coding>
            </category>
            <category>
               <coding>
                  <system value="http://hl7.org/fhir/observation-category"></system>
                  <code value="vital_signs"></code>
                  <display value="Vital Signs"></display>
               </coding>
            </category>
            <code>
               <coding>
                  <system value="http://loinc.org"></system>
                  <code value="75186-7"></code>
                  <display value="Vital Sign"></display>
               </coding>
            </code>
            <subject>
               <reference value="10050755"></reference>
            </subject>
            <effectiveDateTime value="2134-02-26T00:00:00+00:00"></effectiveDateTime>
            <valueCodeableConcept>
               <coding>
                  <system value="https://www.medizininformatik-initiative.de/fhir/core/CodeSystem/Vitalstatus"></system>
                  <code value="X"></code>
                  <display value="unbekannt"></display>
               </coding>
            </valueCodeableConcept>
         </Observation>
      </resource>
      <request>
         <method value="POST"></method>
         <url value="Observation"></url>
      </request>
   </entry>
   <entry>
      <resource>
         <Observation xmlns="http://hl7.org/fhir">
            <meta>
               <profile value="https://www.medizininformatik-initiative.de/fhir/core/modul-person/StructureDefinition/Vitalstatus"></profile>
            </meta>
            <partOf>
               <reference value="20050796"></reference>
            </partOf>
            <status value="final"></status>
            <category>
               <coding>
                  <system value="http://terminology.hl7.org/CodeSystem/observation-category"></system>
                  <code value="survey"></code>
                  <display value="Survey"></display>
               </coding>
            </category>
            <category>
               <coding>
                  <system value="http://hl7.org/fhir/observation-category"></system>
                  <code value="vital_signs"></code>
                  <display value="Vital Signs"></display>
               </coding>
            </category>
            <code>
               <coding>
                  <system value="http://loinc.org"></system>
                  <code value="75186-7"></code>
                  <display value="Vital Sign"></display>
               </coding>
            </code>
            <subject>
               <reference value="10050755"></reference>
            </subject>
            <effectiveDateTime value="2134-02-26T00:00:00+00:00"></effectiveDateTime>
            <valueCodeableConcept>
               <coding>
                  <system value="https://www.medizininformatik-initiative.de/fhir/core/CodeSystem/Vitalstatus"></system>
                  <code value="X"></code>
                  <display value="unbekannt"></display>
               </coding>
            </valueCodeableConcept>
         </Observation>
      </resource>
      <request>
         <method value="POST"></method>
         <url value="Observation"></url>
      </request>
   </entry>
   <entry>
      <resource>
         <Observation xmlns="http://hl7.org/fhir">
            <meta>
               <profile value="https://www.medizininformatik-initiative.de/fhir/core/modul-person/StructureDefinition/Vitalstatus"></profile>
            </meta>
            <partOf>
               <reference value="20050796"></reference>
            </partOf>
            <status value="final"></status>
            <category>
               <coding>
                  <system value="http://terminology.hl7.org/CodeSystem/observation-category"></system>
                  <code value="survey"></code>
                  <display value="Survey"></display>
               </coding>
            </category>
            <category>
               <coding>
                  <system value="http://hl7.org/fhir/observation-category"></system>
                  <code value="vital_signs"></code>
                  <display value="Vital Signs"></display>
               </coding>
            </category>
            <code>
               <coding>
                  <system value="http://loinc.org"></system>
                  <code value="75186-7"></code>
                  <display value="Vital Sign"></display>
               </coding>
            </code>
            <subject>
               <reference value="10050755"></reference>
            </subject>
            <effectiveDateTime value="2134-02-26T00:00:00+00:00"></effectiveDateTime>
            <valueCodeableConcept>
               <coding>
                  <system value="https://www.medizininformatik-initiative.de/fhir/core/CodeSystem/Vitalstatus"></system>
                  <code value="X"></code>
                  <display value="unbekannt"></display>
               </coding>
            </valueCodeableConcept>
         </Observation>
      </resource>
      <request>
         <method value="POST"></method>
         <url value="Observation"></url>
      </request>
   </entry>
   <entry>
      <resource>
         <Observation xmlns="http://hl7.org/fhir">
            <meta>
               <profile value="https://www.medizininformatik-initiative.de/fhir/core/modul-person/StructureDefinition/Vitalstatus"></profile>
            </meta>
            <partOf>
               <reference value="20050796"></reference>
            </partOf>
            <status value="final"></status>
            <category>
               <coding>
                  <system value="http://terminology.hl7.org/CodeSystem/observation-category"></system>
                  <code value="survey"></code>
                  <display value="Survey"></display>
               </coding>
            </category>
            <category>
               <coding>
                  <system value="http://hl7.org/fhir/observation-category"></system>
                  <code value="vital_signs"></code>
                  <display value="Vital Signs"></display>
               </coding>
            </category>
            <code>
               <coding>
                  <system value="http://loinc.org"></system>
                  <code value="75186-7"></code>
                  <display value="Vital Sign"></display>
               </coding>
            </code>
            <subject>
               <reference value="10050755"></reference>
            </subject>
            <effectiveDateTime value="2134-02-26T00:00:00+00:00"></effectiveDateTime>
            <valueCodeableConcept>
               <coding>
                  <system value="https://www.medizininformatik-initiative.de/fhir/core/CodeSystem/Vitalstatus"></system>
                  <code value="X"></code>
                  <display value="unbekannt"></display>
               </coding>
            </valueCodeableConcept>
         </Observation>
      </resource>
      <request>
         <method value="POST"></method>
         <url value="Observation"></url>
      </request>
   </entry>
   <entry>
      <resource>
         <Observation xmlns="http://hl7.org/fhir">
            <meta>
               <profile value="https://www.umontreal.ca/fhir/core/modul-labor/StructureDefinition/ObservationLab"></profile>
            </meta>
            <identifier>
               <use value="usual"></use>
               <type>
                  <coding>
                     <system value="http://terminology.hl7.org/CodeSystem/v2-0203"></system>
                     <code value="OBI"></code>
                     <display value="Optometrist license number"></display>
                  </coding>
               </type>
               <system value="http://www.umontreal.ca/labevents"></system>
               <value value="584345"></value>
               <assigner>
                  <reference value="10050755"></reference>
               </assigner>
            </identifier>
            <partOf>
               <reference value="20050796"></reference>
            </partOf>
            <status value="final"></status>
            <code>
               <text value="Base Excess"></text>
            </code>
            <subject>
               <reference value="10050755"></reference>
            </subject>
            <effectiveDateTime value="2134-02-26T00:00:00+00:00"></effectiveDateTime>
            <valueQuantity>
               <value value="4.0"></value>
               <unit value="mEq/L"></unit>
            </valueQuantity>
         </Observation>
      </resource>
      <request>
         <method value="POST"></method>
         <url value="Observation"></url>
      </request>
   </entry>
   <entry>
      <resource>
         <Observation xmlns="http://hl7.org/fhir">
            <meta>
               <profile value="https://www.umontreal.ca/fhir/core/modul-labor/StructureDefinition/ObservationLab"></profile>
            </meta>
            <identifier>
               <use value="usual"></use>
               <type>
                  <coding>
                     <system value="http://terminology.hl7.org/CodeSystem/v2-0203"></system>
                     <code value="OBI"></code>
                     <display value="Optometrist license number"></display>
                  </coding>
               </type>
               <system value="http://www.umontreal.ca/labevents"></system>
               <value value="584346"></value>
               <assigner>
                  <reference value="10050755"></reference>
               </assigner>
            </identifier>
            <partOf>
               <reference value="20050796"></reference>
            </partOf>
            <status value="final"></status>
            <code>
               <text value="Calculated Total CO2"></text>
            </code>
            <subject>
               <reference value="10050755"></reference>
            </subject>
            <effectiveDateTime value="2134-02-26T00:00:00+00:00"></effectiveDateTime>
            <valueQuantity>
               <value value="33.0"></value>
               <unit value="mEq/L"></unit>
            </valueQuantity>
         </Observation>
      </resource>
      <request>
         <method value="POST"></method>
         <url value="Observation"></url>
      </request>
   </entry>
   <entry>
      <resource>
         <Observation xmlns="http://hl7.org/fhir">
            <meta>
               <profile value="https://www.umontreal.ca/fhir/core/modul-labor/StructureDefinition/ObservationLab"></profile>
            </meta>
            <identifier>
               <use value="usual"></use>
               <type>
                  <coding>
                     <system value="http://terminology.hl7.org/CodeSystem/v2-0203"></system>
                     <code value="OBI"></code>
                     <display value="Optometrist license number"></display>
                  </coding>
               </type>
               <system value="http://www.umontreal.ca/labevents"></system>
               <value value="584347"></value>
               <assigner>
                  <reference value="10050755"></reference>
               </assigner>
            </identifier>
            <partOf>
               <reference value="20050796"></reference>
            </partOf>
            <status value="final"></status>
            <code>
               <text value="Intubated"></text>
            </code>
            <subject>
               <reference value="10050755"></reference>
            </subject>
            <effectiveDateTime value="2134-02-26T00:00:00+00:00"></effectiveDateTime>
            <dataAbsentReason>
               <coding>
                  <system value="http://terminology.hl7.org/CodeSystem/data-absent-reason"></system>
                  <code value="asked-unknown"></code>
                  <display value="Asked But Unknown"></display>
               </coding>
            </dataAbsentReason>
            <note>
               <text value="___"></text>
            </note>
         </Observation>
      </resource>
      <request>
         <method value="POST"></method>
         <url value="Observation"></url>
      </request>
   </entry>
   <entry>
      <resource>
         <Observation xmlns="http://hl7.org/fhir">
            <meta>
               <profile value="https://www.umontreal.ca/fhir/core/modul-labor/StructureDefinition/ObservationLab"></profile>
            </meta>
            <identifier>
               <use value="usual"></use>
               <type>
                  <coding>
                     <system value="http://terminology.hl7.org/CodeSystem/v2-0203"></system>
                     <code value="OBI"></code>
                     <display value="Optometrist license number"></display>
                  </coding>
               </type>
               <system value="http://www.umontreal.ca/labevents"></system>
               <value value="584348"></value>
               <assigner>
                  <reference value="10050755"></reference>
               </assigner>
            </identifier>
            <partOf>
               <reference value="20050796"></reference>
            </partOf>
            <status value="final"></status>
            <code>
               <text value="Lactate"></text>
            </code>
            <subject>
               <reference value="10050755"></reference>
            </subject>
            <effectiveDateTime value="2134-02-26T00:00:00+00:00"></effectiveDateTime>
            <valueQuantity>
               <value value="1.1"></value>
               <unit value="mmol/L"></unit>
            </valueQuantity>
         </Observation>
      </resource>
      <request>
         <method value="POST"></method>
         <url value="Observation"></url>
      </request>
   </entry>
   <entry>
      <resource>
         <Observation xmlns="http://hl7.org/fhir">
            <meta>
               <profile value="https://www.umontreal.ca/fhir/core/modul-labor/StructureDefinition/ObservationLab"></profile>
            </meta>
            <identifier>
               <use value="usual"></use>
               <type>
                  <coding>
                     <system value="http://terminology.hl7.org/CodeSystem/v2-0203"></system>
                     <code value="OBI"></code>
                     <display value="Optometrist license number"></display>
                  </coding>
               </type>
               <system value="http://www.umontreal.ca/labevents"></system>
               <value value="584349"></value>
               <assigner>
                  <reference value="10050755"></reference>
               </assigner>
            </identifier>
            <partOf>
               <reference value="20050796"></reference>
            </partOf>
            <status value="final"></status>
            <code>
               <text value="pCO2"></text>
            </code>
            <subject>
               <reference value="10050755"></reference>
            </subject>
            <effectiveDateTime value="2134-02-26T00:00:00+00:00"></effectiveDateTime>
            <valueQuantity>
               <value value="52.0"></value>
               <unit value="mm Hg"></unit>
            </valueQuantity>
         </Observation>
      </resource>
      <request>
         <method value="POST"></method>
         <url value="Observation"></url>
      </request>
   </entry>
   <entry>
      <resource>
         <Observation xmlns="http://hl7.org/fhir">
            <meta>
               <profile value="https://www.umontreal.ca/fhir/core/modul-labor/StructureDefinition/ObservationLab"></profile>
            </meta>
            <identifier>
               <use value="usual"></use>
               <type>
                  <coding>
                     <system value="http://terminology.hl7.org/CodeSystem/v2-0203"></system>
                     <code value="OBI"></code>
                     <display value="Optometrist license number"></display>
                  </coding>
               </type>
               <system value="http://www.umontreal.ca/labevents"></system>
               <value value="584350"></value>
               <assigner>
                  <reference value="10050755"></reference>
               </assigner>
            </identifier>
            <partOf>
               <reference value="20050796"></reference>
            </partOf>
            <status value="final"></status>
            <code>
               <text value="pH"></text>
            </code>
            <subject>
               <reference value="10050755"></reference>
            </subject>
            <effectiveDateTime value="2134-02-26T00:00:00+00:00"></effectiveDateTime>
            <valueQuantity>
               <value value="7.39"></value>
               <unit value="units"></unit>
            </valueQuantity>
         </Observation>
      </resource>
      <request>
         <method value="POST"></method>
         <url value="Observation"></url>
      </request>
   </entry>
   <entry>
      <resource>
         <Observation xmlns="http://hl7.org/fhir">
            <meta>
               <profile value="https://www.umontreal.ca/fhir/core/modul-labor/StructureDefinition/ObservationLab"></profile>
            </meta>
            <identifier>
               <use value="usual"></use>
               <type>
                  <coding>
                     <system value="http://terminology.hl7.org/CodeSystem/v2-0203"></system>
                     <code value="OBI"></code>
                     <display value="Optometrist license number"></display>
                  </coding>
               </type>
               <system value="http://www.umontreal.ca/labevents"></system>
               <value value="584351"></value>
               <assigner>
                  <reference value="10050755"></reference>
               </assigner>
            </identifier>
            <partOf>
               <reference value="20050796"></reference>
            </partOf>
            <status value="final"></status>
            <code>
               <text value="pO2"></text>
            </code>
            <subject>
               <reference value="10050755"></reference>
            </subject>
            <effectiveDateTime value="2134-02-26T00:00:00+00:00"></effectiveDateTime>
            <valueQuantity>
               <value value="97.0"></value>
               <unit value="mm Hg"></unit>
            </valueQuantity>
         </Observation>
      </resource>
      <request>
         <method value="POST"></method>
         <url value="Observation"></url>
      </request>
   </entry>
   <entry>
      <resource>
         <Observation xmlns="http://hl7.org/fhir">
            <meta>
               <profile value="https://www.umontreal.ca/fhir/core/modul-labor/StructureDefinition/ObservationLab"></profile>
            </meta>
            <identifier>
               <use value="usual"></use>
               <type>
                  <coding>
                     <system value="http://terminology.hl7.org/CodeSystem/v2-0203"></system>
                     <code value="OBI"></code>
                     <display value="Optometrist license number"></display>
                  </coding>
               </type>
               <system value="http://www.umontreal.ca/labevents"></system>
               <value value="584352"></value>
               <assigner>
                  <reference value="10050755"></reference>
               </assigner>
            </identifier>
            <partOf>
               <reference value="20050796"></reference>
            </partOf>
            <status value="final"></status>
            <code>
               <text value="Sodium, Whole Blood"></text>
            </code>
            <subject>
               <reference value="10050755"></reference>
            </subject>
            <effectiveDateTime value="2134-02-26T00:00:00+00:00"></effectiveDateTime>
            <valueQuantity>
               <value value="153.0"></value>
               <unit value="mEq/L"></unit>
            </valueQuantity>
            <note>
               <text value="VERIFIED."></text>
            </note>
         </Observation>
      </resource>
      <request>
         <method value="POST"></method>
         <url value="Observation"></url>
      </request>
   </entry>
   <entry>
      <resource>
         <Observation xmlns="http://hl7.org/fhir">
            <meta>
               <profile value="https://www.umontreal.ca/fhir/core/modul-labor/StructureDefinition/ObservationLab"></profile>
            </meta>
            <identifier>
               <use value="usual"></use>
               <type>
                  <coding>
                     <system value="http://terminology.hl7.org/CodeSystem/v2-0203"></system>
                     <code value="OBI"></code>
                     <display value="Optometrist license number"></display>
                  </coding>
               </type>
               <system value="http://www.umontreal.ca/labevents"></system>
               <value value="584353"></value>
               <assigner>
                  <reference value="10050755"></reference>
               </assigner>
            </identifier>
            <partOf>
               <reference value="20050796"></reference>
            </partOf>
            <status value="final"></status>
            <code>
               <text value="Temperature"></text>
            </code>
            <subject>
               <reference value="10050755"></reference>
            </subject>
            <effectiveDateTime value="2134-02-26T00:00:00+00:00"></effectiveDateTime>
            <valueQuantity>
               <value value="36.6"></value>
            </valueQuantity>
         </Observation>
      </resource>
      <request>
         <method value="POST"></method>
         <url value="Observation"></url>
      </request>
   </entry>
   <entry>
      <resource>
         <Observation xmlns="http://hl7.org/fhir">
            <meta>
               <profile value="https://www.umontreal.ca/fhir/core/modul-labor/StructureDefinition/ObservationLab"></profile>
            </meta>
            <identifier>
               <use value="usual"></use>
               <type>
                  <coding>
                     <system value="http://terminology.hl7.org/CodeSystem/v2-0203"></system>
                     <code value="OBI"></code>
                     <display value="Optometrist license number"></display>
                  </coding>
               </type>
               <system value="http://www.umontreal.ca/labevents"></system>
               <value value="584354"></value>
               <assigner>
                  <reference value="10050755"></reference>
               </assigner>
            </identifier>
            <partOf>
               <reference value="20050796"></reference>
            </partOf>
            <status value="final"></status>
            <code>
               <text value="Ventilation Rate"></text>
            </code>
            <subject>
               <reference value="10050755"></reference>
            </subject>
            <effectiveDateTime value="2134-02-26T00:00:00+00:00"></effectiveDateTime>
            <dataAbsentReason>
               <coding>
                  <system value="http://terminology.hl7.org/CodeSystem/data-absent-reason"></system>
                  <code value="asked-unknown"></code>
                  <display value="Asked But Unknown"></display>
               </coding>
            </dataAbsentReason>
            <note>
               <text value="___"></text>
            </note>
         </Observation>
      </resource>
      <request>
         <method value="POST"></method>
         <url value="Observation"></url>
      </request>
   </entry>
   <entry>
      <resource>
         <Observation xmlns="http://hl7.org/fhir">
            <meta>
               <profile value="https://www.umontreal.ca/fhir/core/modul-labor/StructureDefinition/ObservationLab"></profile>
            </meta>
            <identifier>
               <use value="usual"></use>
               <type>
                  <coding>
                     <system value="http://terminology.hl7.org/CodeSystem/v2-0203"></system>
                     <code value="OBI"></code>
                     <display value="Optometrist license number"></display>
                  </coding>
               </type>
               <system value="http://www.umontreal.ca/labevents"></system>
               <value value="584355"></value>
               <assigner>
                  <reference value="10050755"></reference>
               </assigner>
            </identifier>
            <partOf>
               <reference value="20050796"></reference>
            </partOf>
            <status value="final"></status>
            <code>
               <text value="Specimen Type"></text>
            </code>
            <subject>
               <reference value="10050755"></reference>
            </subject>
            <effectiveDateTime value="2134-02-26T00:00:00+00:00"></effectiveDateTime>
            <dataAbsentReason>
               <coding>
                  <system value="http://terminology.hl7.org/CodeSystem/data-absent-reason"></system>
                  <code value="asked-unknown"></code>
                  <display value="Asked But Unknown"></display>
               </coding>
            </dataAbsentReason>
            <note>
               <text value="___"></text>
            </note>
         </Observation>
      </resource>
      <request>
         <method value="POST"></method>
         <url value="Observation"></url>
      </request>
   </entry>
</Bundle>