<Bundle xmlns="http://hl7.org/fhir">
   <type value="transaction"></type>
   <entry>
      <fullUrl value="urn:uuid:c439acba-f4e0-423f-8185-62d34df1afe9"></fullUrl>
      <resource>
         <Patient xmlns="http://hl7.org/fhir">
            <meta>
               <profile value="https://www.medizininformatik-initiative.de/fhir/core/modul-person/StructureDefinition/Patient"></profile>
            </meta>
            <text>
               <status value="generated"></status>
               <div xmlns="http://www.w3.org/1999/xhtml"> 
                  <div class="hapiHeaderText">10006196 
                     <b>PATIENT_10006196 </b> 
                  </div> 
                  <table class="hapiPropertyTable"> 
                     <tbody> 
                        <tr> 
                           <td>Identifier</td> 
                           <td>10006196</td> 
                        </tr> 
                        <tr> 
                           <td>Address</td> 
                           <td> 
                              <span>Musterstrasse 1 </span> 
                              <br></br> 
                              <span>Berlin </span> 
                              <span>DE </span> 
                           </td> 
                        </tr> 
                        <tr> 
                           <td>Date of birth</td> 
                           <td> 
                              <span>01 January 2179</span> 
                           </td> 
                        </tr> 
                     </tbody> 
                  </table> 
               </div>
            </text>
            <identifier>
               <use value="usual"></use>
               <type>
                  <coding>
                     <system value="http://terminology.hl7.org/CodeSystem/v2-0203"></system>
                     <code value="MR"></code>
                  </coding>
               </type>
               <system value="http://www.umontreal.ca/patients"></system>
               <value value="10006196"></value>
            </identifier>
            <name>
               <use value="official"></use>
               <family value="Patient_10006196">
                  <extension url="http://hl7.org/fhir/StructureDefinition/humanname-own-name">
                     <valueString value="Patient_10006196"></valueString>
                  </extension>
               </family>
               <given value="10006196"></given>
            </name>
            <gender value="female"></gender>
            <birthDate value="2179-01-01">
               <extension url="http://hl7.org/fhir/StructureDefinition/data-absent-reason">
                  <valueCode value="masked"></valueCode>
               </extension>
            </birthDate>
            <deceasedBoolean value="false"></deceasedBoolean>
            <address>
               <type value="postal"></type>
               <line value="Musterstrasse 1">
                  <extension url="http://hl7.org/fhir/StructureDefinition/iso21090-ADXP-streetName">
                     <valueString value="Musterstrasse"></valueString>
                  </extension>
                  <extension url="http://hl7.org/fhir/StructureDefinition/iso21090-ADXP-houseNumber">
                     <valueString value="1"></valueString>
                  </extension>
               </line>
               <city value="Berlin"></city>
               <postalCode value="12043"></postalCode>
               <country value="DE"></country>
            </address>
            <maritalStatus>
               <coding>
                  <system value="http://hl7.org/fhir/ValueSet/marital-status"></system>
                  <code value="M"></code>
                  <display value="Married"></display>
               </coding>
            </maritalStatus>
         </Patient>
      </resource>
      <request>
         <method value="POST"></method>
         <url value="Patient"></url>
         <ifNoneExist value="identifier=http://www.umontreal.ca/patients|10006196"></ifNoneExist>
      </request>
   </entry>
   <entry>
      <fullUrl value="urn:uuid:2cd27265-a906-45af-ac9d-9a51f1ac6aae"></fullUrl>
      <resource>
         <Organization xmlns="http://hl7.org/fhir">
            <identifier>
               <system value="http://www.umontreal.ca"></system>
               <value value="hospital"></value>
            </identifier>
            <type>
               <coding>
                  <system value="http://hl7.org/fhir/organization-type"></system>
                  <code value="prov"></code>
                  <display value="Healthcare Provider"></display>
               </coding>
            </type>
            <name value="IMI-Mimic Hospital"></name>
         </Organization>
      </resource>
      <request>
         <method value="POST"></method>
         <url value="Organization"></url>
         <ifNoneExist value="identifier=http://www.umontreal.ca|hospital"></ifNoneExist>
      </request>
   </entry>
   <entry>
      <fullUrl value="urn:uuid:0cf72009-6d92-4d51-8a3b-af60884b5d9d"></fullUrl>
      <resource>
         <Condition xmlns="http://hl7.org/fhir">
            <meta>
               <profile value="https://www.medizininformatik-initiative.de/fhir/core/modul-diagnose/StructureDefinition/Diagnose"></profile>
            </meta>
            <identifier>
               <system value="http://www.imi-mimic.de/diags"></system>
               <value value="null_1"></value>
            </identifier>
            <subject>
               <reference value="10006196"></reference>
            </subject>
            <recordedDate>
               <extension url="http://hl7.org/fhir/StructureDefinition/data-absent-reason">
                  <valueCode value="unknown"></valueCode>
               </extension>
            </recordedDate>
         </Condition>
      </resource>
      <request>
         <method value="POST"></method>
         <url value="Condition"></url>
         <ifNoneExist value="identifier=http://www.imi-mimic.de/diags|null_1"></ifNoneExist>
      </request>
   </entry>
   <entry>
      <fullUrl value="urn:uuid:4338d3a9-d48a-46dd-bfd8-6fd8722080b0"></fullUrl>
      <resource>
         <Location xmlns="http://hl7.org/fhir">
            <identifier>
               <system value="http://www.imi-mimic.de/location/Unknown"></system>
               <value value="Unknown"></value>
            </identifier>
            <name value="Unknown"></name>
            <type>
               <coding>
                  <system value="http://terminology.hl7.org/ValueSet/v3-ServiceDeliveryLocationRoleType"></system>
                  <code value="_ServiceDeliveryLocationRoleType"></code>
                  <display value="ServiceDeliveryLocationRoleType"></display>
               </coding>
            </type>
            <physicalType>
               <coding>
                  <system value="http://terminology.hl7.org/CodeSystem/location-physical-type"></system>
                  <code value="wa"></code>
                  <display value="Ward"></display>
               </coding>
            </physicalType>
            <managingOrganization>
               <reference value="urn:uuid:36ad2032-0307-431e-be03-410e49e859e4"></reference>
            </managingOrganization>
         </Location>
      </resource>
      <request>
         <method value="POST"></method>
         <url value="Location"></url>
         <ifNoneExist value="identifier=http://www.imi-mimic.de/location/Unknown|Unknown"></ifNoneExist>
      </request>
   </entry>
   <entry>
      <fullUrl value="urn:uuid:c1692be9-e090-41e2-a242-27f27e8f6ca5"></fullUrl>
      <resource>
         <Encounter xmlns="http://hl7.org/fhir">
            <status value="finished"></status>
            <class>
               <system value="https://www.medizininformatik-initiative.de/fhir/core/CodeSystem/EncounterClassAdditionsDE"></system>
               <code value="_ActEncounterCode"></code>
               <display value="ActEncounterCode"></display>
            </class>
            <period>
               <start value="2204-09-23T00:00:00+00:00"></start>
            </period>
            <location>
               <location>
                  <reference value="urn:uuid:4338d3a9-d48a-46dd-bfd8-6fd8722080b0"></reference>
               </location>
               <status value="completed"></status>
               <physicalType>
                  <coding>
                     <system value="http://terminology.hl7.org/CodeSystem/location-physical-type"></system>
                     <code value="wa"></code>
                     <display value="Ward"></display>
                  </coding>
               </physicalType>
               <period>
                  <start value="2204-09-23T00:00:00+00:00"></start>
               </period>
            </location>
            <serviceProvider>
               <reference value="urn:uuid:36ad2032-0307-431e-be03-410e49e859e4"></reference>
            </serviceProvider>
            <partOf>
               <reference value="urn:uuid:474e2daa-8fb4-475f-97b8-3c33fece8b69"></reference>
            </partOf>
         </Encounter>
      </resource>
      <request>
         <method value="POST"></method>
         <url value="Encounter"></url>
         <ifNoneExist value="identifier=null|null"></ifNoneExist>
      </request>
   </entry>
   <entry>
      <fullUrl value="urn:uuid:f4e18b7c-0614-4cad-9a47-6363ef78cfb3"></fullUrl>
      <resource>
         <Location xmlns="http://hl7.org/fhir">
            <identifier>
               <system value="http://www.imi-mimic.de/location/Obstetrics_(Postpartum_&amp;_Antepartum)"></system>
               <value value="Obstetrics (Postpartum &amp; Antepartum)"></value>
            </identifier>
            <name value="Obstetrics (Postpartum &amp; Antepartum)"></name>
            <type>
               <coding>
                  <system value="http://terminology.hl7.org/ValueSet/v3-ServiceDeliveryLocationRoleType"></system>
                  <code value="_ServiceDeliveryLocationRoleType"></code>
                  <display value="ServiceDeliveryLocationRoleType"></display>
               </coding>
            </type>
            <physicalType>
               <coding>
                  <system value="http://terminology.hl7.org/CodeSystem/location-physical-type"></system>
                  <code value="wa"></code>
                  <display value="Ward"></display>
               </coding>
            </physicalType>
            <managingOrganization>
               <reference value="urn:uuid:7ecc6849-f16d-44e1-a174-83792115bc6a"></reference>
            </managingOrganization>
         </Location>
      </resource>
      <request>
         <method value="POST"></method>
         <url value="Location"></url>
         <ifNoneExist value="identifier=http://www.imi-mimic.de/location/Obstetrics_(Postpartum_&amp;_Antepartum)|Obstetrics (Postpartum &amp; Antepartum)"></ifNoneExist>
      </request>
   </entry>
   <entry>
      <fullUrl value="urn:uuid:328c62a9-bdf5-46bd-bbc5-ac4851910a0a"></fullUrl>
      <resource>
         <Encounter xmlns="http://hl7.org/fhir">
            <status value="finished"></status>
            <class>
               <system value="https://www.medizininformatik-initiative.de/fhir/core/CodeSystem/EncounterClassAdditionsDE"></system>
               <code value="_ActEncounterCode"></code>
               <display value="ActEncounterCode"></display>
            </class>
            <period>
               <start value="2204-09-22T00:00:00+00:00"></start>
               <end value="2204-09-23T00:00:00+00:00"></end>
            </period>
            <location>
               <location>
                  <reference value="urn:uuid:f4e18b7c-0614-4cad-9a47-6363ef78cfb3"></reference>
               </location>
               <status value="completed"></status>
               <physicalType>
                  <coding>
                     <system value="http://terminology.hl7.org/CodeSystem/location-physical-type"></system>
                     <code value="wa"></code>
                     <display value="Ward"></display>
                  </coding>
               </physicalType>
               <period>
                  <start value="2204-09-22T00:00:00+00:00"></start>
                  <end value="2204-09-23T00:00:00+00:00"></end>
               </period>
            </location>
            <serviceProvider>
               <reference value="urn:uuid:7ecc6849-f16d-44e1-a174-83792115bc6a"></reference>
            </serviceProvider>
            <partOf>
               <reference value="urn:uuid:474e2daa-8fb4-475f-97b8-3c33fece8b69"></reference>
            </partOf>
         </Encounter>
      </resource>
      <request>
         <method value="POST"></method>
         <url value="Encounter"></url>
         <ifNoneExist value="identifier=null|null"></ifNoneExist>
      </request>
   </entry>
   <entry>
      <fullUrl value="urn:uuid:474e2daa-8fb4-475f-97b8-3c33fece8b69"></fullUrl>
      <resource>
         <Encounter xmlns="http://hl7.org/fhir">
            <meta>
               <profile value="https://www.umontreal.ca/fhir/core/modul-fall/StructureDefinition/KontaktGesundheitseinrichtung"></profile>
            </meta>
            <identifier>
               <type>
                  <coding>
                     <system value="http://terminology.hl7.org/CodeSystem/v2-0203"></system>
                     <code value="VN"></code>
                  </coding>
               </type>
               <system value="http://www.umontreal.ca/encs"></system>
               <value value="21062243"></value>
            </identifier>
            <status value="finished"></status>
            <class>
               <system value="https://www.umontreal.ca/fhir/core/ValueSet/EncounterClassDE"></system>
               <code value="N"></code>
               <display value="Segment nicht anwendbar"></display>
            </class>
            <period>
               <start value="2204-09-22T00:00:00+00:00"></start>
               <end value="2204-09-23T00:00:00+00:00"></end>
            </period>
            <diagnosis>
               <condition>
                  <reference value="urn:uuid:0cf72009-6d92-4d51-8a3b-af60884b5d9d"></reference>
               </condition>
               <rank value="1"></rank>
            </diagnosis>
            <hospitalization>
               <dischargeDisposition>
                  <coding>
                     <system value="https://www.umontreal.ca/fhir/core/modul-fall/CodeSystem/Entlassungsgrund"></system>
                     <code value="039"></code>
                     <display value="Behandlung aus sonstigen Gruenden beendet, keine Angabe"></display>
                  </coding>
               </dischargeDisposition>
            </hospitalization>
         </Encounter>
      </resource>
      <request>
         <method value="POST"></method>
         <url value="Encounter"></url>
         <ifNoneExist value="identifier=http://www.umontreal.ca/encs|21062243"></ifNoneExist>
      </request>
   </entry>
   <entry>
      <fullUrl value="urn:uuid:54f28322-bce3-42b4-9038-226cf838f48f"></fullUrl>
      <resource>
         <Medication xmlns="http://hl7.org/fhir">
            <text>
               <status value="generated"></status>
            </text>
         </Medication>
      </resource>
      <request>
         <method value="POST"></method>
         <url value="Medication"></url>
         <ifNoneExist value="code=null"></ifNoneExist>
      </request>
   </entry>
   <entry>
      <resource>
         <MedicationAdministration xmlns="http://hl7.org/fhir">
            <meta>
               <profile value="https://www.medizininformatik-initiative.de/fhir/core/modul-medikation/StructureDefinition/MedicationAdministration"></profile>
            </meta>
            <identifier>
               <system value="http://umontreal.ca/prescriptions"></system>
               <value value="21062243_0"></value>
            </identifier>
            <status value="completed"></status>
            <medicationReference>
               <reference value="urn:uuid:54f28322-bce3-42b4-9038-226cf838f48f"></reference>
            </medicationReference>
            <subject>
               <reference value="10006196"></reference>
            </subject>
            <context>
               <reference value="21062243"></reference>
            </context>
            <effectivePeriod>
               <start value="2204-09-22T00:00:00+00:00"></start>
               <end value="2204-09-23T00:00:00+00:00"></end>
            </effectivePeriod>
         </MedicationAdministration>
      </resource>
      <request>
         <method value="POST"></method>
         <url value="MedicationAdministration"></url>
      </request>
   </entry>
   <entry>
      <resource>
         <MedicationAdministration xmlns="http://hl7.org/fhir">
            <meta>
               <profile value="https://www.medizininformatik-initiative.de/fhir/core/modul-medikation/StructureDefinition/MedicationAdministration"></profile>
            </meta>
            <identifier>
               <system value="http://umontreal.ca/prescriptions"></system>
               <value value="21062243_1"></value>
            </identifier>
            <status value="completed"></status>
            <medicationReference>
               <reference value="urn:uuid:54f28322-bce3-42b4-9038-226cf838f48f"></reference>
            </medicationReference>
            <subject>
               <reference value="10006196"></reference>
            </subject>
            <context>
               <reference value="21062243"></reference>
            </context>
            <effectivePeriod>
               <start value="2204-09-22T00:00:00+00:00"></start>
               <end value="2204-09-23T00:00:00+00:00"></end>
            </effectivePeriod>
         </MedicationAdministration>
      </resource>
      <request>
         <method value="POST"></method>
         <url value="MedicationAdministration"></url>
      </request>
   </entry>
   <entry>
      <resource>
         <MedicationAdministration xmlns="http://hl7.org/fhir">
            <meta>
               <profile value="https://www.medizininformatik-initiative.de/fhir/core/modul-medikation/StructureDefinition/MedicationAdministration"></profile>
            </meta>
            <identifier>
               <system value="http://umontreal.ca/prescriptions"></system>
               <value value="21062243_2"></value>
            </identifier>
            <status value="completed"></status>
            <medicationReference>
               <reference value="urn:uuid:54f28322-bce3-42b4-9038-226cf838f48f"></reference>
            </medicationReference>
            <subject>
               <reference value="10006196"></reference>
            </subject>
            <context>
               <reference value="21062243"></reference>
            </context>
            <effectivePeriod>
               <start value="2204-09-22T00:00:00+00:00"></start>
               <end value="2204-09-23T00:00:00+00:00"></end>
            </effectivePeriod>
         </MedicationAdministration>
      </resource>
      <request>
         <method value="POST"></method>
         <url value="MedicationAdministration"></url>
      </request>
   </entry>
   <entry>
      <resource>
         <MedicationAdministration xmlns="http://hl7.org/fhir">
            <meta>
               <profile value="https://www.medizininformatik-initiative.de/fhir/core/modul-medikation/StructureDefinition/MedicationAdministration"></profile>
            </meta>
            <identifier>
               <system value="http://umontreal.ca/prescriptions"></system>
               <value value="21062243_3"></value>
            </identifier>
            <status value="completed"></status>
            <medicationReference>
               <reference value="urn:uuid:54f28322-bce3-42b4-9038-226cf838f48f"></reference>
            </medicationReference>
            <subject>
               <reference value="10006196"></reference>
            </subject>
            <context>
               <reference value="21062243"></reference>
            </context>
            <effectivePeriod>
               <start value="2204-09-22T00:00:00+00:00"></start>
               <end value="2204-09-23T00:00:00+00:00"></end>
            </effectivePeriod>
         </MedicationAdministration>
      </resource>
      <request>
         <method value="POST"></method>
         <url value="MedicationAdministration"></url>
      </request>
   </entry>
   <entry>
      <resource>
         <MedicationAdministration xmlns="http://hl7.org/fhir">
            <meta>
               <profile value="https://www.medizininformatik-initiative.de/fhir/core/modul-medikation/StructureDefinition/MedicationAdministration"></profile>
            </meta>
            <identifier>
               <system value="http://umontreal.ca/prescriptions"></system>
               <value value="21062243_4"></value>
            </identifier>
            <status value="completed"></status>
            <medicationReference>
               <reference value="urn:uuid:54f28322-bce3-42b4-9038-226cf838f48f"></reference>
            </medicationReference>
            <subject>
               <reference value="10006196"></reference>
            </subject>
            <context>
               <reference value="21062243"></reference>
            </context>
            <effectivePeriod>
               <start value="2204-09-22T00:00:00+00:00"></start>
               <end value="2204-09-23T00:00:00+00:00"></end>
            </effectivePeriod>
         </MedicationAdministration>
      </resource>
      <request>
         <method value="POST"></method>
         <url value="MedicationAdministration"></url>
      </request>
   </entry>
   <entry>
      <resource>
         <MedicationAdministration xmlns="http://hl7.org/fhir">
            <meta>
               <profile value="https://www.medizininformatik-initiative.de/fhir/core/modul-medikation/StructureDefinition/MedicationAdministration"></profile>
            </meta>
            <identifier>
               <system value="http://umontreal.ca/prescriptions"></system>
               <value value="21062243_5"></value>
            </identifier>
            <status value="completed"></status>
            <medicationReference>
               <reference value="urn:uuid:54f28322-bce3-42b4-9038-226cf838f48f"></reference>
            </medicationReference>
            <subject>
               <reference value="10006196"></reference>
            </subject>
            <context>
               <reference value="21062243"></reference>
            </context>
            <effectivePeriod>
               <start value="2204-09-22T00:00:00+00:00"></start>
               <end value="2204-09-23T00:00:00+00:00"></end>
            </effectivePeriod>
         </MedicationAdministration>
      </resource>
      <request>
         <method value="POST"></method>
         <url value="MedicationAdministration"></url>
      </request>
   </entry>
   <entry>
      <resource>
         <MedicationAdministration xmlns="http://hl7.org/fhir">
            <meta>
               <profile value="https://www.medizininformatik-initiative.de/fhir/core/modul-medikation/StructureDefinition/MedicationAdministration"></profile>
            </meta>
            <identifier>
               <system value="http://umontreal.ca/prescriptions"></system>
               <value value="21062243_6"></value>
            </identifier>
            <status value="completed"></status>
            <medicationReference>
               <reference value="urn:uuid:54f28322-bce3-42b4-9038-226cf838f48f"></reference>
            </medicationReference>
            <subject>
               <reference value="10006196"></reference>
            </subject>
            <context>
               <reference value="21062243"></reference>
            </context>
            <effectivePeriod>
               <start value="2204-09-23T00:00:00+00:00"></start>
               <end value="2204-09-24T00:00:00+00:00"></end>
            </effectivePeriod>
         </MedicationAdministration>
      </resource>
      <request>
         <method value="POST"></method>
         <url value="MedicationAdministration"></url>
      </request>
   </entry>
   <entry>
      <resource>
         <MedicationAdministration xmlns="http://hl7.org/fhir">
            <meta>
               <profile value="https://www.medizininformatik-initiative.de/fhir/core/modul-medikation/StructureDefinition/MedicationAdministration"></profile>
            </meta>
            <identifier>
               <system value="http://umontreal.ca/prescriptions"></system>
               <value value="21062243_7"></value>
            </identifier>
            <status value="completed"></status>
            <medicationReference>
               <reference value="urn:uuid:54f28322-bce3-42b4-9038-226cf838f48f"></reference>
            </medicationReference>
            <subject>
               <reference value="10006196"></reference>
            </subject>
            <context>
               <reference value="21062243"></reference>
            </context>
            <effectivePeriod>
               <start value="2204-09-22T00:00:00+00:00"></start>
               <end value="2204-09-22T00:00:00+00:00"></end>
            </effectivePeriod>
         </MedicationAdministration>
      </resource>
      <request>
         <method value="POST"></method>
         <url value="MedicationAdministration"></url>
      </request>
   </entry>
   <entry>
      <resource>
         <MedicationAdministration xmlns="http://hl7.org/fhir">
            <meta>
               <profile value="https://www.medizininformatik-initiative.de/fhir/core/modul-medikation/StructureDefinition/MedicationAdministration"></profile>
            </meta>
            <identifier>
               <system value="http://umontreal.ca/prescriptions"></system>
               <value value="21062243_8"></value>
            </identifier>
            <status value="completed"></status>
            <medicationReference>
               <reference value="urn:uuid:54f28322-bce3-42b4-9038-226cf838f48f"></reference>
            </medicationReference>
            <subject>
               <reference value="10006196"></reference>
            </subject>
            <context>
               <reference value="21062243"></reference>
            </context>
            <effectivePeriod>
               <start value="2204-09-22T00:00:00+00:00"></start>
               <end value="2204-09-22T00:00:00+00:00"></end>
            </effectivePeriod>
         </MedicationAdministration>
      </resource>
      <request>
         <method value="POST"></method>
         <url value="MedicationAdministration"></url>
      </request>
   </entry>
   <entry>
      <resource>
         <MedicationAdministration xmlns="http://hl7.org/fhir">
            <meta>
               <profile value="https://www.medizininformatik-initiative.de/fhir/core/modul-medikation/StructureDefinition/MedicationAdministration"></profile>
            </meta>
            <identifier>
               <system value="http://umontreal.ca/prescriptions"></system>
               <value value="21062243_9"></value>
            </identifier>
            <status value="completed"></status>
            <medicationReference>
               <reference value="urn:uuid:54f28322-bce3-42b4-9038-226cf838f48f"></reference>
            </medicationReference>
            <subject>
               <reference value="10006196"></reference>
            </subject>
            <context>
               <reference value="21062243"></reference>
            </context>
            <effectivePeriod>
               <start value="2204-09-22T00:00:00+00:00"></start>
               <end value="2204-09-23T00:00:00+00:00"></end>
            </effectivePeriod>
         </MedicationAdministration>
      </resource>
      <request>
         <method value="POST"></method>
         <url value="MedicationAdministration"></url>
      </request>
   </entry>
   <entry>
      <resource>
         <MedicationAdministration xmlns="http://hl7.org/fhir">
            <meta>
               <profile value="https://www.medizininformatik-initiative.de/fhir/core/modul-medikation/StructureDefinition/MedicationAdministration"></profile>
            </meta>
            <identifier>
               <system value="http://umontreal.ca/prescriptions"></system>
               <value value="21062243_10"></value>
            </identifier>
            <status value="completed"></status>
            <medicationReference>
               <reference value="urn:uuid:54f28322-bce3-42b4-9038-226cf838f48f"></reference>
            </medicationReference>
            <subject>
               <reference value="10006196"></reference>
            </subject>
            <context>
               <reference value="21062243"></reference>
            </context>
            <effectivePeriod>
               <start value="2204-09-22T00:00:00+00:00"></start>
               <end value="2204-09-23T00:00:00+00:00"></end>
            </effectivePeriod>
         </MedicationAdministration>
      </resource>
      <request>
         <method value="POST"></method>
         <url value="MedicationAdministration"></url>
      </request>
   </entry>
   <entry>
      <resource>
         <MedicationAdministration xmlns="http://hl7.org/fhir">
            <meta>
               <profile value="https://www.medizininformatik-initiative.de/fhir/core/modul-medikation/StructureDefinition/MedicationAdministration"></profile>
            </meta>
            <identifier>
               <system value="http://umontreal.ca/prescriptions"></system>
               <value value="21062243_11"></value>
            </identifier>
            <status value="completed"></status>
            <medicationReference>
               <reference value="urn:uuid:54f28322-bce3-42b4-9038-226cf838f48f"></reference>
            </medicationReference>
            <subject>
               <reference value="10006196"></reference>
            </subject>
            <context>
               <reference value="21062243"></reference>
            </context>
            <effectivePeriod>
               <start value="2204-09-22T00:00:00+00:00"></start>
               <end value="2204-09-23T00:00:00+00:00"></end>
            </effectivePeriod>
         </MedicationAdministration>
      </resource>
      <request>
         <method value="POST"></method>
         <url value="MedicationAdministration"></url>
      </request>
   </entry>
   <entry>
      <resource>
         <MedicationAdministration xmlns="http://hl7.org/fhir">
            <meta>
               <profile value="https://www.medizininformatik-initiative.de/fhir/core/modul-medikation/StructureDefinition/MedicationAdministration"></profile>
            </meta>
            <identifier>
               <system value="http://umontreal.ca/prescriptions"></system>
               <value value="21062243_12"></value>
            </identifier>
            <status value="completed"></status>
            <medicationReference>
               <reference value="urn:uuid:54f28322-bce3-42b4-9038-226cf838f48f"></reference>
            </medicationReference>
            <subject>
               <reference value="10006196"></reference>
            </subject>
            <context>
               <reference value="21062243"></reference>
            </context>
            <effectivePeriod>
               <start value="2204-09-23T00:00:00+00:00"></start>
               <end value="2204-09-24T00:00:00+00:00"></end>
            </effectivePeriod>
         </MedicationAdministration>
      </resource>
      <request>
         <method value="POST"></method>
         <url value="MedicationAdministration"></url>
      </request>
   </entry>
</Bundle>