<Bundle xmlns="http://hl7.org/fhir">
   <type value="transaction"></type>
   <entry>
      <fullUrl value="urn:uuid:491eabea-79c6-42fe-8a11-f8638a82ccf3"></fullUrl>
      <resource>
         <Patient xmlns="http://hl7.org/fhir">
            <meta>
               <profile value="https://www.medizininformatik-initiative.de/fhir/core/modul-person/StructureDefinition/Patient"></profile>
            </meta>
            <text>
               <status value="generated"></status>
               <div xmlns="http://www.w3.org/1999/xhtml"> 
                  <div class="hapiHeaderText">10008924 
                     <b>PATIENT_10008924 </b> 
                  </div> 
                  <table class="hapiPropertyTable"> 
                     <tbody> 
                        <tr> 
                           <td>Identifier</td> 
                           <td>10008924</td> 
                        </tr> 
                        <tr> 
                           <td>Address</td> 
                           <td> 
                              <span>Musterstrasse 1 </span> 
                              <br></br> 
                              <span>Berlin </span> 
                              <span>DE </span> 
                           </td> 
                        </tr> 
                        <tr> 
                           <td>Date of birth</td> 
                           <td> 
                              <span>01 January 2093</span> 
                           </td> 
                        </tr> 
                     </tbody> 
                  </table> 
               </div>
            </text>
            <identifier>
               <use value="usual"></use>
               <type>
                  <coding>
                     <system value="http://terminology.hl7.org/CodeSystem/v2-0203"></system>
                     <code value="MR"></code>
                  </coding>
               </type>
               <system value="http://www.umontreal.ca/patients"></system>
               <value value="10008924"></value>
            </identifier>
            <name>
               <use value="official"></use>
               <family value="Patient_10008924">
                  <extension url="http://hl7.org/fhir/StructureDefinition/humanname-own-name">
                     <valueString value="Patient_10008924"></valueString>
                  </extension>
               </family>
               <given value="10008924"></given>
            </name>
            <gender value="female"></gender>
            <birthDate value="2093-01-01">
               <extension url="http://hl7.org/fhir/StructureDefinition/data-absent-reason">
                  <valueCode value="masked"></valueCode>
               </extension>
            </birthDate>
            <deceasedDateTime value="2139-09-09T00:00:00+00:00"></deceasedDateTime>
            <address>
               <type value="postal"></type>
               <line value="Musterstrasse 1">
                  <extension url="http://hl7.org/fhir/StructureDefinition/iso21090-ADXP-streetName">
                     <valueString value="Musterstrasse"></valueString>
                  </extension>
                  <extension url="http://hl7.org/fhir/StructureDefinition/iso21090-ADXP-houseNumber">
                     <valueString value="1"></valueString>
                  </extension>
               </line>
               <city value="Berlin"></city>
               <postalCode value="12043"></postalCode>
               <country value="DE"></country>
            </address>
            <maritalStatus>
               <coding>
                  <system value="http://hl7.org/fhir/ValueSet/marital-status"></system>
                  <code value="S"></code>
                  <display value="Never Married"></display>
               </coding>
            </maritalStatus>
         </Patient>
      </resource>
      <request>
         <method value="POST"></method>
         <url value="Patient"></url>
         <ifNoneExist value="identifier=http://www.umontreal.ca/patients|10008924"></ifNoneExist>
      </request>
   </entry>
   <entry>
      <fullUrl value="urn:uuid:2cd27265-a906-45af-ac9d-9a51f1ac6aae"></fullUrl>
      <resource>
         <Organization xmlns="http://hl7.org/fhir">
            <identifier>
               <system value="http://www.umontreal.ca"></system>
               <value value="hospital"></value>
            </identifier>
            <type>
               <coding>
                  <system value="http://hl7.org/fhir/organization-type"></system>
                  <code value="prov"></code>
                  <display value="Healthcare Provider"></display>
               </coding>
            </type>
            <name value="IMI-Mimic Hospital"></name>
         </Organization>
      </resource>
      <request>
         <method value="POST"></method>
         <url value="Organization"></url>
         <ifNoneExist value="identifier=http://www.umontreal.ca|hospital"></ifNoneExist>
      </request>
   </entry>
   <entry>
      <fullUrl value="urn:uuid:cc8d2068-2f9c-4b92-a675-92733c202d4c"></fullUrl>
      <resource>
         <Condition xmlns="http://hl7.org/fhir">
            <meta>
               <profile value="https://www.medizininformatik-initiative.de/fhir/core/modul-diagnose/StructureDefinition/Diagnose"></profile>
            </meta>
            <identifier>
               <system value="http://www.imi-mimic.de/diags"></system>
               <value value="null_8"></value>
            </identifier>
            <subject>
               <reference value="10008924"></reference>
            </subject>
            <recordedDate>
               <extension url="http://hl7.org/fhir/StructureDefinition/data-absent-reason">
                  <valueCode value="unknown"></valueCode>
               </extension>
            </recordedDate>
         </Condition>
      </resource>
      <request>
         <method value="POST"></method>
         <url value="Condition"></url>
         <ifNoneExist value="identifier=http://www.imi-mimic.de/diags|null_8"></ifNoneExist>
      </request>
   </entry>
   <entry>
      <fullUrl value="urn:uuid:0bc551f4-3ab4-4c5c-a6b8-c4a368bbe2ae"></fullUrl>
      <resource>
         <Condition xmlns="http://hl7.org/fhir">
            <meta>
               <profile value="https://www.medizininformatik-initiative.de/fhir/core/modul-diagnose/StructureDefinition/Diagnose"></profile>
            </meta>
            <identifier>
               <system value="http://www.imi-mimic.de/diags"></system>
               <value value="null_7"></value>
            </identifier>
            <subject>
               <reference value="10008924"></reference>
            </subject>
            <recordedDate>
               <extension url="http://hl7.org/fhir/StructureDefinition/data-absent-reason">
                  <valueCode value="unknown"></valueCode>
               </extension>
            </recordedDate>
         </Condition>
      </resource>
      <request>
         <method value="POST"></method>
         <url value="Condition"></url>
         <ifNoneExist value="identifier=http://www.imi-mimic.de/diags|null_7"></ifNoneExist>
      </request>
   </entry>
   <entry>
      <fullUrl value="urn:uuid:e9d7b935-2c0d-4e5f-b683-fc5d55c01d9a"></fullUrl>
      <resource>
         <Condition xmlns="http://hl7.org/fhir">
            <meta>
               <profile value="https://www.medizininformatik-initiative.de/fhir/core/modul-diagnose/StructureDefinition/Diagnose"></profile>
            </meta>
            <identifier>
               <system value="http://www.imi-mimic.de/diags"></system>
               <value value="null_6"></value>
            </identifier>
            <subject>
               <reference value="10008924"></reference>
            </subject>
            <recordedDate>
               <extension url="http://hl7.org/fhir/StructureDefinition/data-absent-reason">
                  <valueCode value="unknown"></valueCode>
               </extension>
            </recordedDate>
         </Condition>
      </resource>
      <request>
         <method value="POST"></method>
         <url value="Condition"></url>
         <ifNoneExist value="identifier=http://www.imi-mimic.de/diags|null_6"></ifNoneExist>
      </request>
   </entry>
   <entry>
      <fullUrl value="urn:uuid:57bd5273-f10f-4509-86bc-9b93a3b8b69a"></fullUrl>
      <resource>
         <Condition xmlns="http://hl7.org/fhir">
            <meta>
               <profile value="https://www.medizininformatik-initiative.de/fhir/core/modul-diagnose/StructureDefinition/Diagnose"></profile>
            </meta>
            <identifier>
               <system value="http://www.imi-mimic.de/diags"></system>
               <value value="null_5"></value>
            </identifier>
            <subject>
               <reference value="10008924"></reference>
            </subject>
            <recordedDate>
               <extension url="http://hl7.org/fhir/StructureDefinition/data-absent-reason">
                  <valueCode value="unknown"></valueCode>
               </extension>
            </recordedDate>
         </Condition>
      </resource>
      <request>
         <method value="POST"></method>
         <url value="Condition"></url>
         <ifNoneExist value="identifier=http://www.imi-mimic.de/diags|null_5"></ifNoneExist>
      </request>
   </entry>
   <entry>
      <fullUrl value="urn:uuid:513d468f-8541-4a69-b4bb-6d758c3bc28e"></fullUrl>
      <resource>
         <Condition xmlns="http://hl7.org/fhir">
            <meta>
               <profile value="https://www.medizininformatik-initiative.de/fhir/core/modul-diagnose/StructureDefinition/Diagnose"></profile>
            </meta>
            <identifier>
               <system value="http://www.imi-mimic.de/diags"></system>
               <value value="null_4"></value>
            </identifier>
            <subject>
               <reference value="10008924"></reference>
            </subject>
            <recordedDate>
               <extension url="http://hl7.org/fhir/StructureDefinition/data-absent-reason">
                  <valueCode value="unknown"></valueCode>
               </extension>
            </recordedDate>
         </Condition>
      </resource>
      <request>
         <method value="POST"></method>
         <url value="Condition"></url>
         <ifNoneExist value="identifier=http://www.imi-mimic.de/diags|null_4"></ifNoneExist>
      </request>
   </entry>
   <entry>
      <fullUrl value="urn:uuid:94995ecb-abdb-4ddb-a253-4d3f2a58bfc0"></fullUrl>
      <resource>
         <Condition xmlns="http://hl7.org/fhir">
            <meta>
               <profile value="https://www.medizininformatik-initiative.de/fhir/core/modul-diagnose/StructureDefinition/Diagnose"></profile>
            </meta>
            <identifier>
               <system value="http://www.imi-mimic.de/diags"></system>
               <value value="null_4"></value>
            </identifier>
            <subject>
               <reference value="10008924"></reference>
            </subject>
            <recordedDate>
               <extension url="http://hl7.org/fhir/StructureDefinition/data-absent-reason">
                  <valueCode value="unknown"></valueCode>
               </extension>
            </recordedDate>
         </Condition>
      </resource>
      <request>
         <method value="POST"></method>
         <url value="Condition"></url>
         <ifNoneExist value="identifier=http://www.imi-mimic.de/diags|null_4"></ifNoneExist>
      </request>
   </entry>
   <entry>
      <fullUrl value="urn:uuid:2995cb4e-ee25-4461-84dc-4aeb33019b04"></fullUrl>
      <resource>
         <Condition xmlns="http://hl7.org/fhir">
            <meta>
               <profile value="https://www.medizininformatik-initiative.de/fhir/core/modul-diagnose/StructureDefinition/Diagnose"></profile>
            </meta>
            <identifier>
               <system value="http://www.imi-mimic.de/diags"></system>
               <value value="null_3"></value>
            </identifier>
            <subject>
               <reference value="10008924"></reference>
            </subject>
            <recordedDate>
               <extension url="http://hl7.org/fhir/StructureDefinition/data-absent-reason">
                  <valueCode value="unknown"></valueCode>
               </extension>
            </recordedDate>
         </Condition>
      </resource>
      <request>
         <method value="POST"></method>
         <url value="Condition"></url>
         <ifNoneExist value="identifier=http://www.imi-mimic.de/diags|null_3"></ifNoneExist>
      </request>
   </entry>
   <entry>
      <fullUrl value="urn:uuid:906cc28c-6a33-4288-9de2-18aa4a12de55"></fullUrl>
      <resource>
         <Condition xmlns="http://hl7.org/fhir">
            <meta>
               <profile value="https://www.medizininformatik-initiative.de/fhir/core/modul-diagnose/StructureDefinition/Diagnose"></profile>
            </meta>
            <identifier>
               <system value="http://www.imi-mimic.de/diags"></system>
               <value value="null_2"></value>
            </identifier>
            <subject>
               <reference value="10008924"></reference>
            </subject>
            <recordedDate>
               <extension url="http://hl7.org/fhir/StructureDefinition/data-absent-reason">
                  <valueCode value="unknown"></valueCode>
               </extension>
            </recordedDate>
         </Condition>
      </resource>
      <request>
         <method value="POST"></method>
         <url value="Condition"></url>
         <ifNoneExist value="identifier=http://www.imi-mimic.de/diags|null_2"></ifNoneExist>
      </request>
   </entry>
   <entry>
      <fullUrl value="urn:uuid:2c3ab34b-707c-42e6-9763-5f8e0eaeeabe"></fullUrl>
      <resource>
         <Condition xmlns="http://hl7.org/fhir">
            <meta>
               <profile value="https://www.medizininformatik-initiative.de/fhir/core/modul-diagnose/StructureDefinition/Diagnose"></profile>
            </meta>
            <identifier>
               <system value="http://www.imi-mimic.de/diags"></system>
               <value value="null_1"></value>
            </identifier>
            <subject>
               <reference value="10008924"></reference>
            </subject>
            <recordedDate>
               <extension url="http://hl7.org/fhir/StructureDefinition/data-absent-reason">
                  <valueCode value="unknown"></valueCode>
               </extension>
            </recordedDate>
         </Condition>
      </resource>
      <request>
         <method value="POST"></method>
         <url value="Condition"></url>
         <ifNoneExist value="identifier=http://www.imi-mimic.de/diags|null_1"></ifNoneExist>
      </request>
   </entry>
   <entry>
      <fullUrl value="urn:uuid:02f0fd1b-461b-465d-8332-07037bebae63"></fullUrl>
      <resource>
         <Procedure xmlns="http://hl7.org/fhir">
            <meta>
               <profile value="https://www.medizininformatik-initiative.de/fhir/core/modul-prozedur/StructureDefinition/Procedure"></profile>
            </meta>
            <identifier>
               <system value="http://www.imi-mimic.de/procs"></system>
               <value value="22988516_1"></value>
            </identifier>
            <status value="completed"></status>
            <subject>
               <reference value="10008924"></reference>
            </subject>
            <encounter>
               <reference value="22988516"></reference>
            </encounter>
         </Procedure>
      </resource>
      <request>
         <method value="POST"></method>
         <url value="Procedure"></url>
         <ifNoneExist value="identifier=http://www.imi-mimic.de/procs|22988516_1"></ifNoneExist>
      </request>
   </entry>
   <entry>
      <fullUrl value="urn:uuid:b127987a-3c05-465e-ab22-5cc5802d0d1d"></fullUrl>
      <resource>
         <Location xmlns="http://hl7.org/fhir">
            <identifier>
               <system value="http://www.imi-mimic.de/location/Surgery/Pancreatic/Biliary/Bariatric"></system>
               <value value="Surgery/Pancreatic/Biliary/Bariatric"></value>
            </identifier>
            <name value="Surgery/Pancreatic/Biliary/Bariatric"></name>
            <type>
               <coding>
                  <system value="http://terminology.hl7.org/ValueSet/v3-ServiceDeliveryLocationRoleType"></system>
                  <code value="_ServiceDeliveryLocationRoleType"></code>
                  <display value="ServiceDeliveryLocationRoleType"></display>
               </coding>
            </type>
            <physicalType>
               <coding>
                  <system value="http://terminology.hl7.org/CodeSystem/location-physical-type"></system>
                  <code value="wa"></code>
                  <display value="Ward"></display>
               </coding>
            </physicalType>
            <managingOrganization>
               <reference value="urn:uuid:8998a4cb-9c39-4b7d-bae2-11c13ddaf30c"></reference>
            </managingOrganization>
         </Location>
      </resource>
      <request>
         <method value="POST"></method>
         <url value="Location"></url>
         <ifNoneExist value="identifier=http://www.imi-mimic.de/location/Surgery/Pancreatic/Biliary/Bariatric|Surgery/Pancreatic/Biliary/Bariatric"></ifNoneExist>
      </request>
   </entry>
   <entry>
      <fullUrl value="urn:uuid:28fb609a-fa0d-4af2-a2e4-d858c7dc215f"></fullUrl>
      <resource>
         <Encounter xmlns="http://hl7.org/fhir">
            <status value="finished"></status>
            <class>
               <system value="https://www.medizininformatik-initiative.de/fhir/core/CodeSystem/EncounterClassAdditionsDE"></system>
               <code value="_ActEncounterCode"></code>
               <display value="ActEncounterCode"></display>
            </class>
            <period>
               <start value="2139-08-20T00:00:00+00:00"></start>
               <end value="2139-08-21T00:00:00+00:00"></end>
            </period>
            <location>
               <location>
                  <reference value="urn:uuid:b127987a-3c05-465e-ab22-5cc5802d0d1d"></reference>
               </location>
               <status value="completed"></status>
               <physicalType>
                  <coding>
                     <system value="http://terminology.hl7.org/CodeSystem/location-physical-type"></system>
                     <code value="wa"></code>
                     <display value="Ward"></display>
                  </coding>
               </physicalType>
               <period>
                  <start value="2139-08-20T00:00:00+00:00"></start>
                  <end value="2139-08-21T00:00:00+00:00"></end>
               </period>
            </location>
            <serviceProvider>
               <reference value="urn:uuid:8998a4cb-9c39-4b7d-bae2-11c13ddaf30c"></reference>
            </serviceProvider>
            <partOf>
               <reference value="urn:uuid:c16bd7c6-1a1c-483d-b952-3749c9412597"></reference>
            </partOf>
         </Encounter>
      </resource>
      <request>
         <method value="POST"></method>
         <url value="Encounter"></url>
         <ifNoneExist value="identifier=null|null"></ifNoneExist>
      </request>
   </entry>
   <entry>
      <fullUrl value="urn:uuid:eeab682b-a852-418a-961e-449455605871"></fullUrl>
      <resource>
         <Location xmlns="http://hl7.org/fhir">
            <identifier>
               <system value="http://www.imi-mimic.de/location/Medicine"></system>
               <value value="Medicine"></value>
            </identifier>
            <name value="Medicine"></name>
            <type>
               <coding>
                  <system value="http://terminology.hl7.org/ValueSet/v3-ServiceDeliveryLocationRoleType"></system>
                  <code value="_ServiceDeliveryLocationRoleType"></code>
                  <display value="ServiceDeliveryLocationRoleType"></display>
               </coding>
            </type>
            <physicalType>
               <coding>
                  <system value="http://terminology.hl7.org/CodeSystem/location-physical-type"></system>
                  <code value="wa"></code>
                  <display value="Ward"></display>
               </coding>
            </physicalType>
            <managingOrganization>
               <reference value="urn:uuid:5c4eecc9-1c0d-4e2f-95a6-fcb76522417a"></reference>
            </managingOrganization>
         </Location>
      </resource>
      <request>
         <method value="POST"></method>
         <url value="Location"></url>
         <ifNoneExist value="identifier=http://www.imi-mimic.de/location/Medicine|Medicine"></ifNoneExist>
      </request>
   </entry>
   <entry>
      <fullUrl value="urn:uuid:18d612d2-62b7-4390-af2b-6bf9ff055ae2"></fullUrl>
      <resource>
         <Encounter xmlns="http://hl7.org/fhir">
            <status value="finished"></status>
            <class>
               <system value="https://www.medizininformatik-initiative.de/fhir/core/CodeSystem/EncounterClassAdditionsDE"></system>
               <code value="_ActEncounterCode"></code>
               <display value="ActEncounterCode"></display>
            </class>
            <period>
               <start value="2139-08-21T00:00:00+00:00"></start>
               <end value="2139-08-22T00:00:00+00:00"></end>
            </period>
            <location>
               <location>
                  <reference value="urn:uuid:eeab682b-a852-418a-961e-449455605871"></reference>
               </location>
               <status value="completed"></status>
               <physicalType>
                  <coding>
                     <system value="http://terminology.hl7.org/CodeSystem/location-physical-type"></system>
                     <code value="wa"></code>
                     <display value="Ward"></display>
                  </coding>
               </physicalType>
               <period>
                  <start value="2139-08-21T00:00:00+00:00"></start>
                  <end value="2139-08-22T00:00:00+00:00"></end>
               </period>
            </location>
            <serviceProvider>
               <reference value="urn:uuid:5c4eecc9-1c0d-4e2f-95a6-fcb76522417a"></reference>
            </serviceProvider>
            <partOf>
               <reference value="urn:uuid:c16bd7c6-1a1c-483d-b952-3749c9412597"></reference>
            </partOf>
         </Encounter>
      </resource>
      <request>
         <method value="POST"></method>
         <url value="Encounter"></url>
         <ifNoneExist value="identifier=null|null"></ifNoneExist>
      </request>
   </entry>
   <entry>
      <fullUrl value="urn:uuid:4338d3a9-d48a-46dd-bfd8-6fd8722080b0"></fullUrl>
      <resource>
         <Location xmlns="http://hl7.org/fhir">
            <identifier>
               <system value="http://www.imi-mimic.de/location/Unknown"></system>
               <value value="Unknown"></value>
            </identifier>
            <name value="Unknown"></name>
            <type>
               <coding>
                  <system value="http://terminology.hl7.org/ValueSet/v3-ServiceDeliveryLocationRoleType"></system>
                  <code value="_ServiceDeliveryLocationRoleType"></code>
                  <display value="ServiceDeliveryLocationRoleType"></display>
               </coding>
            </type>
            <physicalType>
               <coding>
                  <system value="http://terminology.hl7.org/CodeSystem/location-physical-type"></system>
                  <code value="wa"></code>
                  <display value="Ward"></display>
               </coding>
            </physicalType>
            <managingOrganization>
               <reference value="urn:uuid:36ad2032-0307-431e-be03-410e49e859e4"></reference>
            </managingOrganization>
         </Location>
      </resource>
      <request>
         <method value="POST"></method>
         <url value="Location"></url>
         <ifNoneExist value="identifier=http://www.imi-mimic.de/location/Unknown|Unknown"></ifNoneExist>
      </request>
   </entry>
   <entry>
      <fullUrl value="urn:uuid:6f985c17-bd72-49dc-9206-7ce55b87b1c6"></fullUrl>
      <resource>
         <Encounter xmlns="http://hl7.org/fhir">
            <status value="finished"></status>
            <class>
               <system value="https://www.medizininformatik-initiative.de/fhir/core/CodeSystem/EncounterClassAdditionsDE"></system>
               <code value="_ActEncounterCode"></code>
               <display value="ActEncounterCode"></display>
            </class>
            <period>
               <start value="2139-08-22T00:00:00+00:00"></start>
            </period>
            <location>
               <location>
                  <reference value="urn:uuid:4338d3a9-d48a-46dd-bfd8-6fd8722080b0"></reference>
               </location>
               <status value="completed"></status>
               <physicalType>
                  <coding>
                     <system value="http://terminology.hl7.org/CodeSystem/location-physical-type"></system>
                     <code value="wa"></code>
                     <display value="Ward"></display>
                  </coding>
               </physicalType>
               <period>
                  <start value="2139-08-22T00:00:00+00:00"></start>
               </period>
            </location>
            <serviceProvider>
               <reference value="urn:uuid:36ad2032-0307-431e-be03-410e49e859e4"></reference>
            </serviceProvider>
            <partOf>
               <reference value="urn:uuid:c16bd7c6-1a1c-483d-b952-3749c9412597"></reference>
            </partOf>
         </Encounter>
      </resource>
      <request>
         <method value="POST"></method>
         <url value="Encounter"></url>
         <ifNoneExist value="identifier=null|null"></ifNoneExist>
      </request>
   </entry>
   <entry>
      <fullUrl value="urn:uuid:c16bd7c6-1a1c-483d-b952-3749c9412597"></fullUrl>
      <resource>
         <Encounter xmlns="http://hl7.org/fhir">
            <meta>
               <profile value="https://www.umontreal.ca/fhir/core/modul-fall/StructureDefinition/KontaktGesundheitseinrichtung"></profile>
            </meta>
            <identifier>
               <type>
                  <coding>
                     <system value="http://terminology.hl7.org/CodeSystem/v2-0203"></system>
                     <code value="VN"></code>
                  </coding>
               </type>
               <system value="http://www.umontreal.ca/encs"></system>
               <value value="22988516"></value>
            </identifier>
            <status value="finished"></status>
            <class>
               <system value="https://www.umontreal.ca/fhir/core/ValueSet/EncounterClassDE"></system>
               <code value="O"></code>
               <display value="ambulant"></display>
            </class>
            <period>
               <start value="2139-08-20T00:00:00+00:00"></start>
               <end value="2139-08-22T00:00:00+00:00"></end>
            </period>
            <diagnosis>
               <condition>
                  <reference value="urn:uuid:cc8d2068-2f9c-4b92-a675-92733c202d4c"></reference>
               </condition>
               <rank value="8"></rank>
            </diagnosis>
            <diagnosis>
               <condition>
                  <reference value="urn:uuid:0bc551f4-3ab4-4c5c-a6b8-c4a368bbe2ae"></reference>
               </condition>
               <rank value="7"></rank>
            </diagnosis>
            <diagnosis>
               <condition>
                  <reference value="urn:uuid:e9d7b935-2c0d-4e5f-b683-fc5d55c01d9a"></reference>
               </condition>
               <rank value="6"></rank>
            </diagnosis>
            <diagnosis>
               <condition>
                  <reference value="urn:uuid:57bd5273-f10f-4509-86bc-9b93a3b8b69a"></reference>
               </condition>
               <rank value="5"></rank>
            </diagnosis>
            <diagnosis>
               <condition>
                  <reference value="urn:uuid:513d468f-8541-4a69-b4bb-6d758c3bc28e"></reference>
               </condition>
               <rank value="4"></rank>
            </diagnosis>
            <diagnosis>
               <condition>
                  <reference value="urn:uuid:94995ecb-abdb-4ddb-a253-4d3f2a58bfc0"></reference>
               </condition>
               <rank value="4"></rank>
            </diagnosis>
            <diagnosis>
               <condition>
                  <reference value="urn:uuid:2995cb4e-ee25-4461-84dc-4aeb33019b04"></reference>
               </condition>
               <rank value="3"></rank>
            </diagnosis>
            <diagnosis>
               <condition>
                  <reference value="urn:uuid:906cc28c-6a33-4288-9de2-18aa4a12de55"></reference>
               </condition>
               <rank value="2"></rank>
            </diagnosis>
            <diagnosis>
               <condition>
                  <reference value="urn:uuid:2c3ab34b-707c-42e6-9763-5f8e0eaeeabe"></reference>
               </condition>
               <rank value="1"></rank>
            </diagnosis>
            <diagnosis>
               <condition>
                  <reference value="urn:uuid:02f0fd1b-461b-465d-8332-07037bebae63"></reference>
               </condition>
               <rank value="1"></rank>
            </diagnosis>
            <hospitalization>
               <dischargeDisposition>
                  <coding>
                     <system value="https://www.medizininformatik-initiative.de/fhir/core/modul-fall/CodeSystem/Entlassungsgrund"></system>
                     <code value="019"></code>
                     <display value="Behandlung regulaer beendet, keine Angabe"></display>
                  </coding>
               </dischargeDisposition>
            </hospitalization>
         </Encounter>
      </resource>
      <request>
         <method value="POST"></method>
         <url value="Encounter"></url>
         <ifNoneExist value="identifier=http://www.umontreal.ca/encs|22988516"></ifNoneExist>
      </request>
   </entry>
   <entry>
      <fullUrl value="urn:uuid:7dbcbc83-a403-424b-8691-357225dd8688"></fullUrl>
      <resource>
         <Medication xmlns="http://hl7.org/fhir">
            <text>
               <status value="generated"></status>
            </text>
         </Medication>
      </resource>
      <request>
         <method value="POST"></method>
         <url value="Medication"></url>
         <ifNoneExist value="code=null"></ifNoneExist>
      </request>
   </entry>
   <entry>
      <resource>
         <MedicationAdministration xmlns="http://hl7.org/fhir">
            <meta>
               <profile value="https://www.medizininformatik-initiative.de/fhir/core/modul-medikation/StructureDefinition/MedicationAdministration"></profile>
            </meta>
            <identifier>
               <system value="http://umontreal.ca/prescriptions"></system>
               <value value="22988516_0"></value>
            </identifier>
            <status value="completed"></status>
            <medicationReference>
               <reference value="urn:uuid:7dbcbc83-a403-424b-8691-357225dd8688"></reference>
            </medicationReference>
            <subject>
               <reference value="10008924"></reference>
            </subject>
            <context>
               <reference value="22988516"></reference>
            </context>
            <effectivePeriod>
               <start value="2139-08-20T00:00:00+00:00"></start>
               <end value="2139-08-22T00:00:00+00:00"></end>
            </effectivePeriod>
         </MedicationAdministration>
      </resource>
      <request>
         <method value="POST"></method>
         <url value="MedicationAdministration"></url>
      </request>
   </entry>
   <entry>
      <resource>
         <MedicationAdministration xmlns="http://hl7.org/fhir">
            <meta>
               <profile value="https://www.medizininformatik-initiative.de/fhir/core/modul-medikation/StructureDefinition/MedicationAdministration"></profile>
            </meta>
            <identifier>
               <system value="http://umontreal.ca/prescriptions"></system>
               <value value="22988516_1"></value>
            </identifier>
            <status value="completed"></status>
            <medicationReference>
               <reference value="urn:uuid:7dbcbc83-a403-424b-8691-357225dd8688"></reference>
            </medicationReference>
            <subject>
               <reference value="10008924"></reference>
            </subject>
            <context>
               <reference value="22988516"></reference>
            </context>
            <effectivePeriod>
               <start value="2139-08-21T00:00:00+00:00"></start>
               <end value="2139-08-22T00:00:00+00:00"></end>
            </effectivePeriod>
         </MedicationAdministration>
      </resource>
      <request>
         <method value="POST"></method>
         <url value="MedicationAdministration"></url>
      </request>
   </entry>
   <entry>
      <resource>
         <MedicationAdministration xmlns="http://hl7.org/fhir">
            <meta>
               <profile value="https://www.medizininformatik-initiative.de/fhir/core/modul-medikation/StructureDefinition/MedicationAdministration"></profile>
            </meta>
            <identifier>
               <system value="http://umontreal.ca/prescriptions"></system>
               <value value="22988516_2"></value>
            </identifier>
            <status value="completed"></status>
            <medicationReference>
               <reference value="urn:uuid:7dbcbc83-a403-424b-8691-357225dd8688"></reference>
            </medicationReference>
            <subject>
               <reference value="10008924"></reference>
            </subject>
            <context>
               <reference value="22988516"></reference>
            </context>
            <effectivePeriod>
               <start value="2139-08-20T00:00:00+00:00"></start>
               <end value="2139-08-22T00:00:00+00:00"></end>
            </effectivePeriod>
         </MedicationAdministration>
      </resource>
      <request>
         <method value="POST"></method>
         <url value="MedicationAdministration"></url>
      </request>
   </entry>
   <entry>
      <resource>
         <MedicationAdministration xmlns="http://hl7.org/fhir">
            <meta>
               <profile value="https://www.medizininformatik-initiative.de/fhir/core/modul-medikation/StructureDefinition/MedicationAdministration"></profile>
            </meta>
            <identifier>
               <system value="http://umontreal.ca/prescriptions"></system>
               <value value="22988516_3"></value>
            </identifier>
            <status value="completed"></status>
            <medicationReference>
               <reference value="urn:uuid:7dbcbc83-a403-424b-8691-357225dd8688"></reference>
            </medicationReference>
            <subject>
               <reference value="10008924"></reference>
            </subject>
            <context>
               <reference value="22988516"></reference>
            </context>
            <effectivePeriod>
               <start value="2139-08-20T00:00:00+00:00"></start>
               <end value="2139-08-22T00:00:00+00:00"></end>
            </effectivePeriod>
         </MedicationAdministration>
      </resource>
      <request>
         <method value="POST"></method>
         <url value="MedicationAdministration"></url>
      </request>
   </entry>
   <entry>
      <resource>
         <MedicationAdministration xmlns="http://hl7.org/fhir">
            <meta>
               <profile value="https://www.medizininformatik-initiative.de/fhir/core/modul-medikation/StructureDefinition/MedicationAdministration"></profile>
            </meta>
            <identifier>
               <system value="http://umontreal.ca/prescriptions"></system>
               <value value="22988516_4"></value>
            </identifier>
            <status value="completed"></status>
            <medicationReference>
               <reference value="urn:uuid:7dbcbc83-a403-424b-8691-357225dd8688"></reference>
            </medicationReference>
            <subject>
               <reference value="10008924"></reference>
            </subject>
            <context>
               <reference value="22988516"></reference>
            </context>
            <effectivePeriod>
               <start value="2139-08-22T00:00:00+00:00"></start>
               <end value="2139-08-22T00:00:00+00:00"></end>
            </effectivePeriod>
         </MedicationAdministration>
      </resource>
      <request>
         <method value="POST"></method>
         <url value="MedicationAdministration"></url>
      </request>
   </entry>
   <entry>
      <resource>
         <MedicationAdministration xmlns="http://hl7.org/fhir">
            <meta>
               <profile value="https://www.medizininformatik-initiative.de/fhir/core/modul-medikation/StructureDefinition/MedicationAdministration"></profile>
            </meta>
            <identifier>
               <system value="http://umontreal.ca/prescriptions"></system>
               <value value="22988516_5"></value>
            </identifier>
            <status value="completed"></status>
            <medicationReference>
               <reference value="urn:uuid:7dbcbc83-a403-424b-8691-357225dd8688"></reference>
            </medicationReference>
            <subject>
               <reference value="10008924"></reference>
            </subject>
            <context>
               <reference value="22988516"></reference>
            </context>
            <effectivePeriod>
               <start value="2139-08-21T00:00:00+00:00"></start>
               <end value="2139-08-22T00:00:00+00:00"></end>
            </effectivePeriod>
         </MedicationAdministration>
      </resource>
      <request>
         <method value="POST"></method>
         <url value="MedicationAdministration"></url>
      </request>
   </entry>
   <entry>
      <resource>
         <MedicationAdministration xmlns="http://hl7.org/fhir">
            <meta>
               <profile value="https://www.medizininformatik-initiative.de/fhir/core/modul-medikation/StructureDefinition/MedicationAdministration"></profile>
            </meta>
            <identifier>
               <system value="http://umontreal.ca/prescriptions"></system>
               <value value="22988516_6"></value>
            </identifier>
            <status value="completed"></status>
            <medicationReference>
               <reference value="urn:uuid:7dbcbc83-a403-424b-8691-357225dd8688"></reference>
            </medicationReference>
            <subject>
               <reference value="10008924"></reference>
            </subject>
            <context>
               <reference value="22988516"></reference>
            </context>
            <effectivePeriod>
               <start value="2139-08-20T00:00:00+00:00"></start>
               <end value="2139-08-21T00:00:00+00:00"></end>
            </effectivePeriod>
         </MedicationAdministration>
      </resource>
      <request>
         <method value="POST"></method>
         <url value="MedicationAdministration"></url>
      </request>
   </entry>
   <entry>
      <resource>
         <MedicationAdministration xmlns="http://hl7.org/fhir">
            <meta>
               <profile value="https://www.medizininformatik-initiative.de/fhir/core/modul-medikation/StructureDefinition/MedicationAdministration"></profile>
            </meta>
            <identifier>
               <system value="http://umontreal.ca/prescriptions"></system>
               <value value="22988516_7"></value>
            </identifier>
            <status value="completed"></status>
            <medicationReference>
               <reference value="urn:uuid:7dbcbc83-a403-424b-8691-357225dd8688"></reference>
            </medicationReference>
            <subject>
               <reference value="10008924"></reference>
            </subject>
            <context>
               <reference value="22988516"></reference>
            </context>
            <effectivePeriod>
               <start value="2139-08-20T00:00:00+00:00"></start>
               <end value="2139-08-22T00:00:00+00:00"></end>
            </effectivePeriod>
         </MedicationAdministration>
      </resource>
      <request>
         <method value="POST"></method>
         <url value="MedicationAdministration"></url>
      </request>
   </entry>
   <entry>
      <resource>
         <MedicationAdministration xmlns="http://hl7.org/fhir">
            <meta>
               <profile value="https://www.medizininformatik-initiative.de/fhir/core/modul-medikation/StructureDefinition/MedicationAdministration"></profile>
            </meta>
            <identifier>
               <system value="http://umontreal.ca/prescriptions"></system>
               <value value="22988516_8"></value>
            </identifier>
            <status value="completed"></status>
            <medicationReference>
               <reference value="urn:uuid:7dbcbc83-a403-424b-8691-357225dd8688"></reference>
            </medicationReference>
            <subject>
               <reference value="10008924"></reference>
            </subject>
            <context>
               <reference value="22988516"></reference>
            </context>
            <effectivePeriod>
               <start value="2139-08-20T00:00:00+00:00"></start>
               <end value="2139-08-20T00:00:00+00:00"></end>
            </effectivePeriod>
         </MedicationAdministration>
      </resource>
      <request>
         <method value="POST"></method>
         <url value="MedicationAdministration"></url>
      </request>
   </entry>
   <entry>
      <resource>
         <MedicationAdministration xmlns="http://hl7.org/fhir">
            <meta>
               <profile value="https://www.medizininformatik-initiative.de/fhir/core/modul-medikation/StructureDefinition/MedicationAdministration"></profile>
            </meta>
            <identifier>
               <system value="http://umontreal.ca/prescriptions"></system>
               <value value="22988516_9"></value>
            </identifier>
            <status value="completed"></status>
            <medicationReference>
               <reference value="urn:uuid:7dbcbc83-a403-424b-8691-357225dd8688"></reference>
            </medicationReference>
            <subject>
               <reference value="10008924"></reference>
            </subject>
            <context>
               <reference value="22988516"></reference>
            </context>
            <effectivePeriod>
               <start value="2139-08-20T00:00:00+00:00"></start>
               <end value="2139-08-21T00:00:00+00:00"></end>
            </effectivePeriod>
         </MedicationAdministration>
      </resource>
      <request>
         <method value="POST"></method>
         <url value="MedicationAdministration"></url>
      </request>
   </entry>
   <entry>
      <resource>
         <MedicationAdministration xmlns="http://hl7.org/fhir">
            <meta>
               <profile value="https://www.medizininformatik-initiative.de/fhir/core/modul-medikation/StructureDefinition/MedicationAdministration"></profile>
            </meta>
            <identifier>
               <system value="http://umontreal.ca/prescriptions"></system>
               <value value="22988516_10"></value>
            </identifier>
            <status value="completed"></status>
            <medicationReference>
               <reference value="urn:uuid:7dbcbc83-a403-424b-8691-357225dd8688"></reference>
            </medicationReference>
            <subject>
               <reference value="10008924"></reference>
            </subject>
            <context>
               <reference value="22988516"></reference>
            </context>
            <effectivePeriod>
               <start value="2139-08-20T00:00:00+00:00"></start>
               <end value="2139-08-20T00:00:00+00:00"></end>
            </effectivePeriod>
         </MedicationAdministration>
      </resource>
      <request>
         <method value="POST"></method>
         <url value="MedicationAdministration"></url>
      </request>
   </entry>
   <entry>
      <resource>
         <MedicationAdministration xmlns="http://hl7.org/fhir">
            <meta>
               <profile value="https://www.medizininformatik-initiative.de/fhir/core/modul-medikation/StructureDefinition/MedicationAdministration"></profile>
            </meta>
            <identifier>
               <system value="http://umontreal.ca/prescriptions"></system>
               <value value="22988516_11"></value>
            </identifier>
            <status value="completed"></status>
            <medicationReference>
               <reference value="urn:uuid:7dbcbc83-a403-424b-8691-357225dd8688"></reference>
            </medicationReference>
            <subject>
               <reference value="10008924"></reference>
            </subject>
            <context>
               <reference value="22988516"></reference>
            </context>
            <effectivePeriod>
               <start value="2139-08-22T00:00:00+00:00"></start>
               <end value="2139-08-22T00:00:00+00:00"></end>
            </effectivePeriod>
         </MedicationAdministration>
      </resource>
      <request>
         <method value="POST"></method>
         <url value="MedicationAdministration"></url>
      </request>
   </entry>
   <entry>
      <resource>
         <MedicationAdministration xmlns="http://hl7.org/fhir">
            <meta>
               <profile value="https://www.medizininformatik-initiative.de/fhir/core/modul-medikation/StructureDefinition/MedicationAdministration"></profile>
            </meta>
            <identifier>
               <system value="http://umontreal.ca/prescriptions"></system>
               <value value="22988516_12"></value>
            </identifier>
            <status value="completed"></status>
            <medicationReference>
               <reference value="urn:uuid:7dbcbc83-a403-424b-8691-357225dd8688"></reference>
            </medicationReference>
            <subject>
               <reference value="10008924"></reference>
            </subject>
            <context>
               <reference value="22988516"></reference>
            </context>
            <effectivePeriod>
               <start value="2139-08-21T00:00:00+00:00"></start>
               <end value="2139-08-22T00:00:00+00:00"></end>
            </effectivePeriod>
         </MedicationAdministration>
      </resource>
      <request>
         <method value="POST"></method>
         <url value="MedicationAdministration"></url>
      </request>
   </entry>
   <entry>
      <resource>
         <MedicationAdministration xmlns="http://hl7.org/fhir">
            <meta>
               <profile value="https://www.medizininformatik-initiative.de/fhir/core/modul-medikation/StructureDefinition/MedicationAdministration"></profile>
            </meta>
            <identifier>
               <system value="http://umontreal.ca/prescriptions"></system>
               <value value="22988516_13"></value>
            </identifier>
            <status value="completed"></status>
            <medicationReference>
               <reference value="urn:uuid:7dbcbc83-a403-424b-8691-357225dd8688"></reference>
            </medicationReference>
            <subject>
               <reference value="10008924"></reference>
            </subject>
            <context>
               <reference value="22988516"></reference>
            </context>
            <effectivePeriod>
               <start value="2139-08-21T00:00:00+00:00"></start>
               <end value="2139-08-22T00:00:00+00:00"></end>
            </effectivePeriod>
         </MedicationAdministration>
      </resource>
      <request>
         <method value="POST"></method>
         <url value="MedicationAdministration"></url>
      </request>
   </entry>
   <entry>
      <resource>
         <MedicationAdministration xmlns="http://hl7.org/fhir">
            <meta>
               <profile value="https://www.medizininformatik-initiative.de/fhir/core/modul-medikation/StructureDefinition/MedicationAdministration"></profile>
            </meta>
            <identifier>
               <system value="http://umontreal.ca/prescriptions"></system>
               <value value="22988516_14"></value>
            </identifier>
            <status value="completed"></status>
            <medicationReference>
               <reference value="urn:uuid:7dbcbc83-a403-424b-8691-357225dd8688"></reference>
            </medicationReference>
            <subject>
               <reference value="10008924"></reference>
            </subject>
            <context>
               <reference value="22988516"></reference>
            </context>
            <effectivePeriod>
               <start value="2139-08-21T00:00:00+00:00"></start>
               <end value="2139-08-22T00:00:00+00:00"></end>
            </effectivePeriod>
         </MedicationAdministration>
      </resource>
      <request>
         <method value="POST"></method>
         <url value="MedicationAdministration"></url>
      </request>
   </entry>
   <entry>
      <resource>
         <MedicationAdministration xmlns="http://hl7.org/fhir">
            <meta>
               <profile value="https://www.medizininformatik-initiative.de/fhir/core/modul-medikation/StructureDefinition/MedicationAdministration"></profile>
            </meta>
            <identifier>
               <system value="http://umontreal.ca/prescriptions"></system>
               <value value="22988516_15"></value>
            </identifier>
            <status value="completed"></status>
            <medicationReference>
               <reference value="urn:uuid:7dbcbc83-a403-424b-8691-357225dd8688"></reference>
            </medicationReference>
            <subject>
               <reference value="10008924"></reference>
            </subject>
            <context>
               <reference value="22988516"></reference>
            </context>
            <effectivePeriod>
               <start value="2139-08-20T00:00:00+00:00"></start>
               <end value="2139-08-22T00:00:00+00:00"></end>
            </effectivePeriod>
         </MedicationAdministration>
      </resource>
      <request>
         <method value="POST"></method>
         <url value="MedicationAdministration"></url>
      </request>
   </entry>
   <entry>
      <resource>
         <MedicationAdministration xmlns="http://hl7.org/fhir">
            <meta>
               <profile value="https://www.medizininformatik-initiative.de/fhir/core/modul-medikation/StructureDefinition/MedicationAdministration"></profile>
            </meta>
            <identifier>
               <system value="http://umontreal.ca/prescriptions"></system>
               <value value="22988516_16"></value>
            </identifier>
            <status value="completed"></status>
            <medicationReference>
               <reference value="urn:uuid:7dbcbc83-a403-424b-8691-357225dd8688"></reference>
            </medicationReference>
            <subject>
               <reference value="10008924"></reference>
            </subject>
            <context>
               <reference value="22988516"></reference>
            </context>
            <effectivePeriod>
               <start value="2139-08-20T00:00:00+00:00"></start>
               <end value="2139-08-22T00:00:00+00:00"></end>
            </effectivePeriod>
         </MedicationAdministration>
      </resource>
      <request>
         <method value="POST"></method>
         <url value="MedicationAdministration"></url>
      </request>
   </entry>
   <entry>
      <resource>
         <MedicationAdministration xmlns="http://hl7.org/fhir">
            <meta>
               <profile value="https://www.medizininformatik-initiative.de/fhir/core/modul-medikation/StructureDefinition/MedicationAdministration"></profile>
            </meta>
            <identifier>
               <system value="http://umontreal.ca/prescriptions"></system>
               <value value="22988516_17"></value>
            </identifier>
            <status value="completed"></status>
            <medicationReference>
               <reference value="urn:uuid:7dbcbc83-a403-424b-8691-357225dd8688"></reference>
            </medicationReference>
            <subject>
               <reference value="10008924"></reference>
            </subject>
            <context>
               <reference value="22988516"></reference>
            </context>
            <effectivePeriod>
               <start value="2139-08-22T00:00:00+00:00"></start>
               <end value="2139-08-22T00:00:00+00:00"></end>
            </effectivePeriod>
         </MedicationAdministration>
      </resource>
      <request>
         <method value="POST"></method>
         <url value="MedicationAdministration"></url>
      </request>
   </entry>
   <entry>
      <resource>
         <MedicationAdministration xmlns="http://hl7.org/fhir">
            <meta>
               <profile value="https://www.medizininformatik-initiative.de/fhir/core/modul-medikation/StructureDefinition/MedicationAdministration"></profile>
            </meta>
            <identifier>
               <system value="http://umontreal.ca/prescriptions"></system>
               <value value="22988516_18"></value>
            </identifier>
            <status value="completed"></status>
            <medicationReference>
               <reference value="urn:uuid:7dbcbc83-a403-424b-8691-357225dd8688"></reference>
            </medicationReference>
            <subject>
               <reference value="10008924"></reference>
            </subject>
            <context>
               <reference value="22988516"></reference>
            </context>
            <effectivePeriod>
               <start value="2139-08-22T00:00:00+00:00"></start>
               <end value="2139-08-22T00:00:00+00:00"></end>
            </effectivePeriod>
         </MedicationAdministration>
      </resource>
      <request>
         <method value="POST"></method>
         <url value="MedicationAdministration"></url>
      </request>
   </entry>
   <entry>
      <resource>
         <MedicationAdministration xmlns="http://hl7.org/fhir">
            <meta>
               <profile value="https://www.medizininformatik-initiative.de/fhir/core/modul-medikation/StructureDefinition/MedicationAdministration"></profile>
            </meta>
            <identifier>
               <system value="http://umontreal.ca/prescriptions"></system>
               <value value="22988516_19"></value>
            </identifier>
            <status value="completed"></status>
            <medicationReference>
               <reference value="urn:uuid:7dbcbc83-a403-424b-8691-357225dd8688"></reference>
            </medicationReference>
            <subject>
               <reference value="10008924"></reference>
            </subject>
            <context>
               <reference value="22988516"></reference>
            </context>
            <effectivePeriod>
               <start value="2139-08-21T00:00:00+00:00"></start>
               <end value="2139-08-22T00:00:00+00:00"></end>
            </effectivePeriod>
         </MedicationAdministration>
      </resource>
      <request>
         <method value="POST"></method>
         <url value="MedicationAdministration"></url>
      </request>
   </entry>
   <entry>
      <resource>
         <MedicationAdministration xmlns="http://hl7.org/fhir">
            <meta>
               <profile value="https://www.medizininformatik-initiative.de/fhir/core/modul-medikation/StructureDefinition/MedicationAdministration"></profile>
            </meta>
            <identifier>
               <system value="http://umontreal.ca/prescriptions"></system>
               <value value="22988516_20"></value>
            </identifier>
            <status value="completed"></status>
            <medicationReference>
               <reference value="urn:uuid:7dbcbc83-a403-424b-8691-357225dd8688"></reference>
            </medicationReference>
            <subject>
               <reference value="10008924"></reference>
            </subject>
            <context>
               <reference value="22988516"></reference>
            </context>
            <effectivePeriod>
               <start value="2139-08-22T00:00:00+00:00"></start>
               <end value="2139-08-22T00:00:00+00:00"></end>
            </effectivePeriod>
         </MedicationAdministration>
      </resource>
      <request>
         <method value="POST"></method>
         <url value="MedicationAdministration"></url>
      </request>
   </entry>
   <entry>
      <resource>
         <MedicationAdministration xmlns="http://hl7.org/fhir">
            <meta>
               <profile value="https://www.medizininformatik-initiative.de/fhir/core/modul-medikation/StructureDefinition/MedicationAdministration"></profile>
            </meta>
            <identifier>
               <system value="http://umontreal.ca/prescriptions"></system>
               <value value="22988516_21"></value>
            </identifier>
            <status value="completed"></status>
            <medicationReference>
               <reference value="urn:uuid:7dbcbc83-a403-424b-8691-357225dd8688"></reference>
            </medicationReference>
            <subject>
               <reference value="10008924"></reference>
            </subject>
            <context>
               <reference value="22988516"></reference>
            </context>
            <effectivePeriod>
               <start value="2139-08-20T00:00:00+00:00"></start>
               <end value="2139-08-21T00:00:00+00:00"></end>
            </effectivePeriod>
         </MedicationAdministration>
      </resource>
      <request>
         <method value="POST"></method>
         <url value="MedicationAdministration"></url>
      </request>
   </entry>
   <entry>
      <resource>
         <MedicationAdministration xmlns="http://hl7.org/fhir">
            <meta>
               <profile value="https://www.medizininformatik-initiative.de/fhir/core/modul-medikation/StructureDefinition/MedicationAdministration"></profile>
            </meta>
            <identifier>
               <system value="http://umontreal.ca/prescriptions"></system>
               <value value="22988516_22"></value>
            </identifier>
            <status value="completed"></status>
            <medicationReference>
               <reference value="urn:uuid:7dbcbc83-a403-424b-8691-357225dd8688"></reference>
            </medicationReference>
            <subject>
               <reference value="10008924"></reference>
            </subject>
            <context>
               <reference value="22988516"></reference>
            </context>
            <effectivePeriod>
               <start value="2139-08-20T00:00:00+00:00"></start>
               <end value="2139-08-21T00:00:00+00:00"></end>
            </effectivePeriod>
         </MedicationAdministration>
      </resource>
      <request>
         <method value="POST"></method>
         <url value="MedicationAdministration"></url>
      </request>
   </entry>
   <entry>
      <resource>
         <MedicationAdministration xmlns="http://hl7.org/fhir">
            <meta>
               <profile value="https://www.medizininformatik-initiative.de/fhir/core/modul-medikation/StructureDefinition/MedicationAdministration"></profile>
            </meta>
            <identifier>
               <system value="http://umontreal.ca/prescriptions"></system>
               <value value="22988516_23"></value>
            </identifier>
            <status value="completed"></status>
            <medicationReference>
               <reference value="urn:uuid:7dbcbc83-a403-424b-8691-357225dd8688"></reference>
            </medicationReference>
            <subject>
               <reference value="10008924"></reference>
            </subject>
            <context>
               <reference value="22988516"></reference>
            </context>
            <effectivePeriod>
               <start value="2139-08-20T00:00:00+00:00"></start>
               <end value="2139-08-21T00:00:00+00:00"></end>
            </effectivePeriod>
         </MedicationAdministration>
      </resource>
      <request>
         <method value="POST"></method>
         <url value="MedicationAdministration"></url>
      </request>
   </entry>
   <entry>
      <resource>
         <MedicationAdministration xmlns="http://hl7.org/fhir">
            <meta>
               <profile value="https://www.medizininformatik-initiative.de/fhir/core/modul-medikation/StructureDefinition/MedicationAdministration"></profile>
            </meta>
            <identifier>
               <system value="http://umontreal.ca/prescriptions"></system>
               <value value="22988516_24"></value>
            </identifier>
            <status value="completed"></status>
            <medicationReference>
               <reference value="urn:uuid:7dbcbc83-a403-424b-8691-357225dd8688"></reference>
            </medicationReference>
            <subject>
               <reference value="10008924"></reference>
            </subject>
            <context>
               <reference value="22988516"></reference>
            </context>
            <effectivePeriod>
               <start value="2139-08-20T00:00:00+00:00"></start>
               <end value="2139-08-20T00:00:00+00:00"></end>
            </effectivePeriod>
         </MedicationAdministration>
      </resource>
      <request>
         <method value="POST"></method>
         <url value="MedicationAdministration"></url>
      </request>
   </entry>
   <entry>
      <resource>
         <MedicationAdministration xmlns="http://hl7.org/fhir">
            <meta>
               <profile value="https://www.medizininformatik-initiative.de/fhir/core/modul-medikation/StructureDefinition/MedicationAdministration"></profile>
            </meta>
            <identifier>
               <system value="http://umontreal.ca/prescriptions"></system>
               <value value="22988516_25"></value>
            </identifier>
            <status value="completed"></status>
            <medicationReference>
               <reference value="urn:uuid:7dbcbc83-a403-424b-8691-357225dd8688"></reference>
            </medicationReference>
            <subject>
               <reference value="10008924"></reference>
            </subject>
            <context>
               <reference value="22988516"></reference>
            </context>
            <effectivePeriod>
               <start value="2139-08-20T00:00:00+00:00"></start>
               <end value="2139-08-21T00:00:00+00:00"></end>
            </effectivePeriod>
         </MedicationAdministration>
      </resource>
      <request>
         <method value="POST"></method>
         <url value="MedicationAdministration"></url>
      </request>
   </entry>
   <entry>
      <resource>
         <Observation xmlns="http://hl7.org/fhir">
            <meta>
               <profile value="https://www.umontreal.ca/fhir/core/modul-labor/StructureDefinition/ObservationLab"></profile>
            </meta>
            <identifier>
               <use value="usual"></use>
               <type>
                  <coding>
                     <system value="http://terminology.hl7.org/CodeSystem/v2-0203"></system>
                     <code value="OBI"></code>
                     <display value="Optometrist license number"></display>
                  </coding>
               </type>
               <system value="http://www.umontreal.ca/labevents"></system>
               <value value="106430"></value>
               <assigner>
                  <reference value="10008924"></reference>
               </assigner>
            </identifier>
            <partOf>
               <reference value="22988516"></reference>
            </partOf>
            <status value="final"></status>
            <code>
               <text value="Hematocrit"></text>
            </code>
            <subject>
               <reference value="10008924"></reference>
            </subject>
            <effectiveDateTime value="2139-08-20T00:00:00+00:00"></effectiveDateTime>
            <valueQuantity>
               <value value="31.2"></value>
               <unit value="%"></unit>
            </valueQuantity>
         </Observation>
      </resource>
      <request>
         <method value="POST"></method>
         <url value="Observation"></url>
      </request>
   </entry>
   <entry>
      <resource>
         <Observation xmlns="http://hl7.org/fhir">
            <meta>
               <profile value="https://www.umontreal.ca/fhir/core/modul-labor/StructureDefinition/ObservationLab"></profile>
            </meta>
            <identifier>
               <use value="usual"></use>
               <type>
                  <coding>
                     <system value="http://terminology.hl7.org/CodeSystem/v2-0203"></system>
                     <code value="OBI"></code>
                     <display value="Optometrist license number"></display>
                  </coding>
               </type>
               <system value="http://www.umontreal.ca/labevents"></system>
               <value value="106431"></value>
               <assigner>
                  <reference value="10008924"></reference>
               </assigner>
            </identifier>
            <partOf>
               <reference value="22988516"></reference>
            </partOf>
            <status value="final"></status>
            <code>
               <text value="Hemoglobin"></text>
            </code>
            <subject>
               <reference value="10008924"></reference>
            </subject>
            <effectiveDateTime value="2139-08-20T00:00:00+00:00"></effectiveDateTime>
            <valueQuantity>
               <value value="10.3"></value>
               <unit value="g/dL"></unit>
            </valueQuantity>
         </Observation>
      </resource>
      <request>
         <method value="POST"></method>
         <url value="Observation"></url>
      </request>
   </entry>
   <entry>
      <resource>
         <Observation xmlns="http://hl7.org/fhir">
            <meta>
               <profile value="https://www.umontreal.ca/fhir/core/modul-labor/StructureDefinition/ObservationLab"></profile>
            </meta>
            <identifier>
               <use value="usual"></use>
               <type>
                  <coding>
                     <system value="http://terminology.hl7.org/CodeSystem/v2-0203"></system>
                     <code value="OBI"></code>
                     <display value="Optometrist license number"></display>
                  </coding>
               </type>
               <system value="http://www.umontreal.ca/labevents"></system>
               <value value="106432"></value>
               <assigner>
                  <reference value="10008924"></reference>
               </assigner>
            </identifier>
            <partOf>
               <reference value="22988516"></reference>
            </partOf>
            <status value="final"></status>
            <code>
               <text value="MCH"></text>
            </code>
            <subject>
               <reference value="10008924"></reference>
            </subject>
            <effectiveDateTime value="2139-08-20T00:00:00+00:00"></effectiveDateTime>
            <valueQuantity>
               <value value="30.4"></value>
               <unit value="pg"></unit>
            </valueQuantity>
         </Observation>
      </resource>
      <request>
         <method value="POST"></method>
         <url value="Observation"></url>
      </request>
   </entry>
   <entry>
      <resource>
         <Observation xmlns="http://hl7.org/fhir">
            <meta>
               <profile value="https://www.umontreal.ca/fhir/core/modul-labor/StructureDefinition/ObservationLab"></profile>
            </meta>
            <identifier>
               <use value="usual"></use>
               <type>
                  <coding>
                     <system value="http://terminology.hl7.org/CodeSystem/v2-0203"></system>
                     <code value="OBI"></code>
                     <display value="Optometrist license number"></display>
                  </coding>
               </type>
               <system value="http://www.umontreal.ca/labevents"></system>
               <value value="106433"></value>
               <assigner>
                  <reference value="10008924"></reference>
               </assigner>
            </identifier>
            <partOf>
               <reference value="22988516"></reference>
            </partOf>
            <status value="final"></status>
            <code>
               <text value="MCHC"></text>
            </code>
            <subject>
               <reference value="10008924"></reference>
            </subject>
            <effectiveDateTime value="2139-08-20T00:00:00+00:00"></effectiveDateTime>
            <valueQuantity>
               <value value="33.1"></value>
               <unit value="%"></unit>
            </valueQuantity>
         </Observation>
      </resource>
      <request>
         <method value="POST"></method>
         <url value="Observation"></url>
      </request>
   </entry>
   <entry>
      <resource>
         <Observation xmlns="http://hl7.org/fhir">
            <meta>
               <profile value="https://www.umontreal.ca/fhir/core/modul-labor/StructureDefinition/ObservationLab"></profile>
            </meta>
            <identifier>
               <use value="usual"></use>
               <type>
                  <coding>
                     <system value="http://terminology.hl7.org/CodeSystem/v2-0203"></system>
                     <code value="OBI"></code>
                     <display value="Optometrist license number"></display>
                  </coding>
               </type>
               <system value="http://www.umontreal.ca/labevents"></system>
               <value value="106434"></value>
               <assigner>
                  <reference value="10008924"></reference>
               </assigner>
            </identifier>
            <partOf>
               <reference value="22988516"></reference>
            </partOf>
            <status value="final"></status>
            <code>
               <text value="MCV"></text>
            </code>
            <subject>
               <reference value="10008924"></reference>
            </subject>
            <effectiveDateTime value="2139-08-20T00:00:00+00:00"></effectiveDateTime>
            <valueQuantity>
               <value value="92.0"></value>
               <unit value="fL"></unit>
            </valueQuantity>
            <note>
               <text value="VERIFIED BY REPLICATE ANALYSIS."></text>
            </note>
         </Observation>
      </resource>
      <request>
         <method value="POST"></method>
         <url value="Observation"></url>
      </request>
   </entry>
   <entry>
      <resource>
         <Observation xmlns="http://hl7.org/fhir">
            <meta>
               <profile value="https://www.umontreal.ca/fhir/core/modul-labor/StructureDefinition/ObservationLab"></profile>
            </meta>
            <identifier>
               <use value="usual"></use>
               <type>
                  <coding>
                     <system value="http://terminology.hl7.org/CodeSystem/v2-0203"></system>
                     <code value="OBI"></code>
                     <display value="Optometrist license number"></display>
                  </coding>
               </type>
               <system value="http://www.umontreal.ca/labevents"></system>
               <value value="106435"></value>
               <assigner>
                  <reference value="10008924"></reference>
               </assigner>
            </identifier>
            <partOf>
               <reference value="22988516"></reference>
            </partOf>
            <status value="final"></status>
            <code>
               <text value="Platelet Count"></text>
            </code>
            <subject>
               <reference value="10008924"></reference>
            </subject>
            <effectiveDateTime value="2139-08-20T00:00:00+00:00"></effectiveDateTime>
            <valueQuantity>
               <value value="48.0"></value>
               <unit value="K/uL"></unit>
            </valueQuantity>
            <note>
               <text value="VERIFIED BY SMEAR."></text>
            </note>
         </Observation>
      </resource>
      <request>
         <method value="POST"></method>
         <url value="Observation"></url>
      </request>
   </entry>
   <entry>
      <resource>
         <Observation xmlns="http://hl7.org/fhir">
            <meta>
               <profile value="https://www.umontreal.ca/fhir/core/modul-labor/StructureDefinition/ObservationLab"></profile>
            </meta>
            <identifier>
               <use value="usual"></use>
               <type>
                  <coding>
                     <system value="http://terminology.hl7.org/CodeSystem/v2-0203"></system>
                     <code value="OBI"></code>
                     <display value="Optometrist license number"></display>
                  </coding>
               </type>
               <system value="http://www.umontreal.ca/labevents"></system>
               <value value="106437"></value>
               <assigner>
                  <reference value="10008924"></reference>
               </assigner>
            </identifier>
            <partOf>
               <reference value="22988516"></reference>
            </partOf>
            <status value="final"></status>
            <code>
               <text value="RDW"></text>
            </code>
            <subject>
               <reference value="10008924"></reference>
            </subject>
            <effectiveDateTime value="2139-08-20T00:00:00+00:00"></effectiveDateTime>
            <valueQuantity>
               <value value="19.7"></value>
               <unit value="%"></unit>
            </valueQuantity>
         </Observation>
      </resource>
      <request>
         <method value="POST"></method>
         <url value="Observation"></url>
      </request>
   </entry>
   <entry>
      <resource>
         <Observation xmlns="http://hl7.org/fhir">
            <meta>
               <profile value="https://www.umontreal.ca/fhir/core/modul-labor/StructureDefinition/ObservationLab"></profile>
            </meta>
            <identifier>
               <use value="usual"></use>
               <type>
                  <coding>
                     <system value="http://terminology.hl7.org/CodeSystem/v2-0203"></system>
                     <code value="OBI"></code>
                     <display value="Optometrist license number"></display>
                  </coding>
               </type>
               <system value="http://www.umontreal.ca/labevents"></system>
               <value value="106438"></value>
               <assigner>
                  <reference value="10008924"></reference>
               </assigner>
            </identifier>
            <partOf>
               <reference value="22988516"></reference>
            </partOf>
            <status value="final"></status>
            <code>
               <text value="Red Blood Cells"></text>
            </code>
            <subject>
               <reference value="10008924"></reference>
            </subject>
            <effectiveDateTime value="2139-08-20T00:00:00+00:00"></effectiveDateTime>
            <valueQuantity>
               <value value="3.39"></value>
               <unit value="m/uL"></unit>
            </valueQuantity>
         </Observation>
      </resource>
      <request>
         <method value="POST"></method>
         <url value="Observation"></url>
      </request>
   </entry>
   <entry>
      <resource>
         <Observation xmlns="http://hl7.org/fhir">
            <meta>
               <profile value="https://www.umontreal.ca/fhir/core/modul-labor/StructureDefinition/ObservationLab"></profile>
            </meta>
            <identifier>
               <use value="usual"></use>
               <type>
                  <coding>
                     <system value="http://terminology.hl7.org/CodeSystem/v2-0203"></system>
                     <code value="OBI"></code>
                     <display value="Optometrist license number"></display>
                  </coding>
               </type>
               <system value="http://www.umontreal.ca/labevents"></system>
               <value value="106439"></value>
               <assigner>
                  <reference value="10008924"></reference>
               </assigner>
            </identifier>
            <partOf>
               <reference value="22988516"></reference>
            </partOf>
            <status value="final"></status>
            <code>
               <text value="White Blood Cells"></text>
            </code>
            <subject>
               <reference value="10008924"></reference>
            </subject>
            <effectiveDateTime value="2139-08-20T00:00:00+00:00"></effectiveDateTime>
            <valueQuantity>
               <value value="6.5"></value>
               <unit value="K/uL"></unit>
            </valueQuantity>
         </Observation>
      </resource>
      <request>
         <method value="POST"></method>
         <url value="Observation"></url>
      </request>
   </entry>
   <entry>
      <resource>
         <Observation xmlns="http://hl7.org/fhir">
            <meta>
               <profile value="https://www.umontreal.ca/fhir/core/modul-labor/StructureDefinition/ObservationLab"></profile>
            </meta>
            <identifier>
               <use value="usual"></use>
               <type>
                  <coding>
                     <system value="http://terminology.hl7.org/CodeSystem/v2-0203"></system>
                     <code value="OBI"></code>
                     <display value="Optometrist license number"></display>
                  </coding>
               </type>
               <system value="http://www.umontreal.ca/labevents"></system>
               <value value="106440"></value>
               <assigner>
                  <reference value="10008924"></reference>
               </assigner>
            </identifier>
            <partOf>
               <reference value="22988516"></reference>
            </partOf>
            <status value="final"></status>
            <code>
               <text value="Alanine Aminotransferase (ALT)"></text>
            </code>
            <subject>
               <reference value="10008924"></reference>
            </subject>
            <effectiveDateTime value="2139-08-20T00:00:00+00:00"></effectiveDateTime>
            <valueQuantity>
               <value value="25.0"></value>
               <unit value="IU/L"></unit>
            </valueQuantity>
         </Observation>
      </resource>
      <request>
         <method value="POST"></method>
         <url value="Observation"></url>
      </request>
   </entry>
   <entry>
      <resource>
         <Observation xmlns="http://hl7.org/fhir">
            <meta>
               <profile value="https://www.umontreal.ca/fhir/core/modul-labor/StructureDefinition/ObservationLab"></profile>
            </meta>
            <identifier>
               <use value="usual"></use>
               <type>
                  <coding>
                     <system value="http://terminology.hl7.org/CodeSystem/v2-0203"></system>
                     <code value="OBI"></code>
                     <display value="Optometrist license number"></display>
                  </coding>
               </type>
               <system value="http://www.umontreal.ca/labevents"></system>
               <value value="106441"></value>
               <assigner>
                  <reference value="10008924"></reference>
               </assigner>
            </identifier>
            <partOf>
               <reference value="22988516"></reference>
            </partOf>
            <status value="final"></status>
            <code>
               <text value="Albumin"></text>
            </code>
            <subject>
               <reference value="10008924"></reference>
            </subject>
            <effectiveDateTime value="2139-08-20T00:00:00+00:00"></effectiveDateTime>
            <valueQuantity>
               <value value="3.2"></value>
               <unit value="g/dL"></unit>
            </valueQuantity>
         </Observation>
      </resource>
      <request>
         <method value="POST"></method>
         <url value="Observation"></url>
      </request>
   </entry>
   <entry>
      <resource>
         <Observation xmlns="http://hl7.org/fhir">
            <meta>
               <profile value="https://www.umontreal.ca/fhir/core/modul-labor/StructureDefinition/ObservationLab"></profile>
            </meta>
            <identifier>
               <use value="usual"></use>
               <type>
                  <coding>
                     <system value="http://terminology.hl7.org/CodeSystem/v2-0203"></system>
                     <code value="OBI"></code>
                     <display value="Optometrist license number"></display>
                  </coding>
               </type>
               <system value="http://www.umontreal.ca/labevents"></system>
               <value value="106442"></value>
               <assigner>
                  <reference value="10008924"></reference>
               </assigner>
            </identifier>
            <partOf>
               <reference value="22988516"></reference>
            </partOf>
            <status value="final"></status>
            <code>
               <text value="Alkaline Phosphatase"></text>
            </code>
            <subject>
               <reference value="10008924"></reference>
            </subject>
            <effectiveDateTime value="2139-08-20T00:00:00+00:00"></effectiveDateTime>
            <valueQuantity>
               <value value="142.0"></value>
               <unit value="IU/L"></unit>
            </valueQuantity>
         </Observation>
      </resource>
      <request>
         <method value="POST"></method>
         <url value="Observation"></url>
      </request>
   </entry>
   <entry>
      <resource>
         <Observation xmlns="http://hl7.org/fhir">
            <meta>
               <profile value="https://www.umontreal.ca/fhir/core/modul-labor/StructureDefinition/ObservationLab"></profile>
            </meta>
            <identifier>
               <use value="usual"></use>
               <type>
                  <coding>
                     <system value="http://terminology.hl7.org/CodeSystem/v2-0203"></system>
                     <code value="OBI"></code>
                     <display value="Optometrist license number"></display>
                  </coding>
               </type>
               <system value="http://www.umontreal.ca/labevents"></system>
               <value value="106443"></value>
               <assigner>
                  <reference value="10008924"></reference>
               </assigner>
            </identifier>
            <partOf>
               <reference value="22988516"></reference>
            </partOf>
            <status value="final"></status>
            <code>
               <text value="Anion Gap"></text>
            </code>
            <subject>
               <reference value="10008924"></reference>
            </subject>
            <effectiveDateTime value="2139-08-20T00:00:00+00:00"></effectiveDateTime>
            <valueQuantity>
               <value value="16.0"></value>
               <unit value="mEq/L"></unit>
            </valueQuantity>
         </Observation>
      </resource>
      <request>
         <method value="POST"></method>
         <url value="Observation"></url>
      </request>
   </entry>
   <entry>
      <resource>
         <Observation xmlns="http://hl7.org/fhir">
            <meta>
               <profile value="https://www.umontreal.ca/fhir/core/modul-labor/StructureDefinition/ObservationLab"></profile>
            </meta>
            <identifier>
               <use value="usual"></use>
               <type>
                  <coding>
                     <system value="http://terminology.hl7.org/CodeSystem/v2-0203"></system>
                     <code value="OBI"></code>
                     <display value="Optometrist license number"></display>
                  </coding>
               </type>
               <system value="http://www.umontreal.ca/labevents"></system>
               <value value="106444"></value>
               <assigner>
                  <reference value="10008924"></reference>
               </assigner>
            </identifier>
            <partOf>
               <reference value="22988516"></reference>
            </partOf>
            <status value="final"></status>
            <code>
               <text value="Asparate Aminotransferase (AST)"></text>
            </code>
            <subject>
               <reference value="10008924"></reference>
            </subject>
            <effectiveDateTime value="2139-08-20T00:00:00+00:00"></effectiveDateTime>
            <valueQuantity>
               <value value="98.0"></value>
               <unit value="IU/L"></unit>
            </valueQuantity>
         </Observation>
      </resource>
      <request>
         <method value="POST"></method>
         <url value="Observation"></url>
      </request>
   </entry>
   <entry>
      <resource>
         <Observation xmlns="http://hl7.org/fhir">
            <meta>
               <profile value="https://www.umontreal.ca/fhir/core/modul-labor/StructureDefinition/ObservationLab"></profile>
            </meta>
            <identifier>
               <use value="usual"></use>
               <type>
                  <coding>
                     <system value="http://terminology.hl7.org/CodeSystem/v2-0203"></system>
                     <code value="OBI"></code>
                     <display value="Optometrist license number"></display>
                  </coding>
               </type>
               <system value="http://www.umontreal.ca/labevents"></system>
               <value value="106445"></value>
               <assigner>
                  <reference value="10008924"></reference>
               </assigner>
            </identifier>
            <partOf>
               <reference value="22988516"></reference>
            </partOf>
            <status value="final"></status>
            <code>
               <text value="Bicarbonate"></text>
            </code>
            <subject>
               <reference value="10008924"></reference>
            </subject>
            <effectiveDateTime value="2139-08-20T00:00:00+00:00"></effectiveDateTime>
            <valueQuantity>
               <value value="20.0"></value>
               <unit value="mEq/L"></unit>
            </valueQuantity>
         </Observation>
      </resource>
      <request>
         <method value="POST"></method>
         <url value="Observation"></url>
      </request>
   </entry>
   <entry>
      <resource>
         <Observation xmlns="http://hl7.org/fhir">
            <meta>
               <profile value="https://www.umontreal.ca/fhir/core/modul-labor/StructureDefinition/ObservationLab"></profile>
            </meta>
            <identifier>
               <use value="usual"></use>
               <type>
                  <coding>
                     <system value="http://terminology.hl7.org/CodeSystem/v2-0203"></system>
                     <code value="OBI"></code>
                     <display value="Optometrist license number"></display>
                  </coding>
               </type>
               <system value="http://www.umontreal.ca/labevents"></system>
               <value value="106446"></value>
               <assigner>
                  <reference value="10008924"></reference>
               </assigner>
            </identifier>
            <partOf>
               <reference value="22988516"></reference>
            </partOf>
            <status value="final"></status>
            <code>
               <text value="Bilirubin, Total"></text>
            </code>
            <subject>
               <reference value="10008924"></reference>
            </subject>
            <effectiveDateTime value="2139-08-20T00:00:00+00:00"></effectiveDateTime>
            <valueQuantity>
               <value value="4.6"></value>
               <unit value="mg/dL"></unit>
            </valueQuantity>
         </Observation>
      </resource>
      <request>
         <method value="POST"></method>
         <url value="Observation"></url>
      </request>
   </entry>
   <entry>
      <resource>
         <Observation xmlns="http://hl7.org/fhir">
            <meta>
               <profile value="https://www.umontreal.ca/fhir/core/modul-labor/StructureDefinition/ObservationLab"></profile>
            </meta>
            <identifier>
               <use value="usual"></use>
               <type>
                  <coding>
                     <system value="http://terminology.hl7.org/CodeSystem/v2-0203"></system>
                     <code value="OBI"></code>
                     <display value="Optometrist license number"></display>
                  </coding>
               </type>
               <system value="http://www.umontreal.ca/labevents"></system>
               <value value="106447"></value>
               <assigner>
                  <reference value="10008924"></reference>
               </assigner>
            </identifier>
            <partOf>
               <reference value="22988516"></reference>
            </partOf>
            <status value="final"></status>
            <code>
               <text value="Calcium, Total"></text>
            </code>
            <subject>
               <reference value="10008924"></reference>
            </subject>
            <effectiveDateTime value="2139-08-20T00:00:00+00:00"></effectiveDateTime>
            <valueQuantity>
               <value value="8.7"></value>
               <unit value="mg/dL"></unit>
            </valueQuantity>
         </Observation>
      </resource>
      <request>
         <method value="POST"></method>
         <url value="Observation"></url>
      </request>
   </entry>
   <entry>
      <resource>
         <Observation xmlns="http://hl7.org/fhir">
            <meta>
               <profile value="https://www.umontreal.ca/fhir/core/modul-labor/StructureDefinition/ObservationLab"></profile>
            </meta>
            <identifier>
               <use value="usual"></use>
               <type>
                  <coding>
                     <system value="http://terminology.hl7.org/CodeSystem/v2-0203"></system>
                     <code value="OBI"></code>
                     <display value="Optometrist license number"></display>
                  </coding>
               </type>
               <system value="http://www.umontreal.ca/labevents"></system>
               <value value="106448"></value>
               <assigner>
                  <reference value="10008924"></reference>
               </assigner>
            </identifier>
            <partOf>
               <reference value="22988516"></reference>
            </partOf>
            <status value="final"></status>
            <code>
               <text value="Chloride"></text>
            </code>
            <subject>
               <reference value="10008924"></reference>
            </subject>
            <effectiveDateTime value="2139-08-20T00:00:00+00:00"></effectiveDateTime>
            <valueQuantity>
               <value value="104.0"></value>
               <unit value="mEq/L"></unit>
            </valueQuantity>
         </Observation>
      </resource>
      <request>
         <method value="POST"></method>
         <url value="Observation"></url>
      </request>
   </entry>
   <entry>
      <resource>
         <Observation xmlns="http://hl7.org/fhir">
            <meta>
               <profile value="https://www.umontreal.ca/fhir/core/modul-labor/StructureDefinition/ObservationLab"></profile>
            </meta>
            <identifier>
               <use value="usual"></use>
               <type>
                  <coding>
                     <system value="http://terminology.hl7.org/CodeSystem/v2-0203"></system>
                     <code value="OBI"></code>
                     <display value="Optometrist license number"></display>
                  </coding>
               </type>
               <system value="http://www.umontreal.ca/labevents"></system>
               <value value="106449"></value>
               <assigner>
                  <reference value="10008924"></reference>
               </assigner>
            </identifier>
            <partOf>
               <reference value="22988516"></reference>
            </partOf>
            <status value="final"></status>
            <code>
               <text value="Creatinine"></text>
            </code>
            <subject>
               <reference value="10008924"></reference>
            </subject>
            <effectiveDateTime value="2139-08-20T00:00:00+00:00"></effectiveDateTime>
            <valueQuantity>
               <value value="1.8"></value>
               <unit value="mg/dL"></unit>
            </valueQuantity>
         </Observation>
      </resource>
      <request>
         <method value="POST"></method>
         <url value="Observation"></url>
      </request>
   </entry>
   <entry>
      <resource>
         <Observation xmlns="http://hl7.org/fhir">
            <meta>
               <profile value="https://www.umontreal.ca/fhir/core/modul-labor/StructureDefinition/ObservationLab"></profile>
            </meta>
            <identifier>
               <use value="usual"></use>
               <type>
                  <coding>
                     <system value="http://terminology.hl7.org/CodeSystem/v2-0203"></system>
                     <code value="OBI"></code>
                     <display value="Optometrist license number"></display>
                  </coding>
               </type>
               <system value="http://www.umontreal.ca/labevents"></system>
               <value value="106451"></value>
               <assigner>
                  <reference value="10008924"></reference>
               </assigner>
            </identifier>
            <partOf>
               <reference value="22988516"></reference>
            </partOf>
            <status value="final"></status>
            <code>
               <text value="Glucose"></text>
            </code>
            <subject>
               <reference value="10008924"></reference>
            </subject>
            <effectiveDateTime value="2139-08-20T00:00:00+00:00"></effectiveDateTime>
            <valueQuantity>
               <value value="77.0"></value>
               <unit value="mg/dL"></unit>
            </valueQuantity>
            <note>
               <text value="IF FASTING, 70-100 NORMAL, &gt;125 PROVISIONAL DIABETES."></text>
            </note>
         </Observation>
      </resource>
      <request>
         <method value="POST"></method>
         <url value="Observation"></url>
      </request>
   </entry>
   <entry>
      <resource>
         <Observation xmlns="http://hl7.org/fhir">
            <meta>
               <profile value="https://www.umontreal.ca/fhir/core/modul-labor/StructureDefinition/ObservationLab"></profile>
            </meta>
            <identifier>
               <use value="usual"></use>
               <type>
                  <coding>
                     <system value="http://terminology.hl7.org/CodeSystem/v2-0203"></system>
                     <code value="OBI"></code>
                     <display value="Optometrist license number"></display>
                  </coding>
               </type>
               <system value="http://www.umontreal.ca/labevents"></system>
               <value value="106452"></value>
               <assigner>
                  <reference value="10008924"></reference>
               </assigner>
            </identifier>
            <partOf>
               <reference value="22988516"></reference>
            </partOf>
            <status value="final"></status>
            <code>
               <text value="Magnesium"></text>
            </code>
            <subject>
               <reference value="10008924"></reference>
            </subject>
            <effectiveDateTime value="2139-08-20T00:00:00+00:00"></effectiveDateTime>
            <valueQuantity>
               <value value="1.1"></value>
               <unit value="mg/dL"></unit>
            </valueQuantity>
         </Observation>
      </resource>
      <request>
         <method value="POST"></method>
         <url value="Observation"></url>
      </request>
   </entry>
   <entry>
      <resource>
         <Observation xmlns="http://hl7.org/fhir">
            <meta>
               <profile value="https://www.umontreal.ca/fhir/core/modul-labor/StructureDefinition/ObservationLab"></profile>
            </meta>
            <identifier>
               <use value="usual"></use>
               <type>
                  <coding>
                     <system value="http://terminology.hl7.org/CodeSystem/v2-0203"></system>
                     <code value="OBI"></code>
                     <display value="Optometrist license number"></display>
                  </coding>
               </type>
               <system value="http://www.umontreal.ca/labevents"></system>
               <value value="106453"></value>
               <assigner>
                  <reference value="10008924"></reference>
               </assigner>
            </identifier>
            <partOf>
               <reference value="22988516"></reference>
            </partOf>
            <status value="final"></status>
            <code>
               <text value="Phosphate"></text>
            </code>
            <subject>
               <reference value="10008924"></reference>
            </subject>
            <effectiveDateTime value="2139-08-20T00:00:00+00:00"></effectiveDateTime>
            <valueQuantity>
               <value value="3.4"></value>
               <unit value="mg/dL"></unit>
            </valueQuantity>
         </Observation>
      </resource>
      <request>
         <method value="POST"></method>
         <url value="Observation"></url>
      </request>
   </entry>
   <entry>
      <resource>
         <Observation xmlns="http://hl7.org/fhir">
            <meta>
               <profile value="https://www.umontreal.ca/fhir/core/modul-labor/StructureDefinition/ObservationLab"></profile>
            </meta>
            <identifier>
               <use value="usual"></use>
               <type>
                  <coding>
                     <system value="http://terminology.hl7.org/CodeSystem/v2-0203"></system>
                     <code value="OBI"></code>
                     <display value="Optometrist license number"></display>
                  </coding>
               </type>
               <system value="http://www.umontreal.ca/labevents"></system>
               <value value="106454"></value>
               <assigner>
                  <reference value="10008924"></reference>
               </assigner>
            </identifier>
            <partOf>
               <reference value="22988516"></reference>
            </partOf>
            <status value="final"></status>
            <code>
               <text value="Potassium"></text>
            </code>
            <subject>
               <reference value="10008924"></reference>
            </subject>
            <effectiveDateTime value="2139-08-20T00:00:00+00:00"></effectiveDateTime>
            <valueQuantity>
               <value value="3.6"></value>
               <unit value="mEq/L"></unit>
            </valueQuantity>
         </Observation>
      </resource>
      <request>
         <method value="POST"></method>
         <url value="Observation"></url>
      </request>
   </entry>
   <entry>
      <resource>
         <Observation xmlns="http://hl7.org/fhir">
            <meta>
               <profile value="https://www.umontreal.ca/fhir/core/modul-labor/StructureDefinition/ObservationLab"></profile>
            </meta>
            <identifier>
               <use value="usual"></use>
               <type>
                  <coding>
                     <system value="http://terminology.hl7.org/CodeSystem/v2-0203"></system>
                     <code value="OBI"></code>
                     <display value="Optometrist license number"></display>
                  </coding>
               </type>
               <system value="http://www.umontreal.ca/labevents"></system>
               <value value="106455"></value>
               <assigner>
                  <reference value="10008924"></reference>
               </assigner>
            </identifier>
            <partOf>
               <reference value="22988516"></reference>
            </partOf>
            <status value="final"></status>
            <code>
               <text value="Sodium"></text>
            </code>
            <subject>
               <reference value="10008924"></reference>
            </subject>
            <effectiveDateTime value="2139-08-20T00:00:00+00:00"></effectiveDateTime>
            <valueQuantity>
               <value value="136.0"></value>
               <unit value="mEq/L"></unit>
            </valueQuantity>
         </Observation>
      </resource>
      <request>
         <method value="POST"></method>
         <url value="Observation"></url>
      </request>
   </entry>
   <entry>
      <resource>
         <Observation xmlns="http://hl7.org/fhir">
            <meta>
               <profile value="https://www.umontreal.ca/fhir/core/modul-labor/StructureDefinition/ObservationLab"></profile>
            </meta>
            <identifier>
               <use value="usual"></use>
               <type>
                  <coding>
                     <system value="http://terminology.hl7.org/CodeSystem/v2-0203"></system>
                     <code value="OBI"></code>
                     <display value="Optometrist license number"></display>
                  </coding>
               </type>
               <system value="http://www.umontreal.ca/labevents"></system>
               <value value="106456"></value>
               <assigner>
                  <reference value="10008924"></reference>
               </assigner>
            </identifier>
            <partOf>
               <reference value="22988516"></reference>
            </partOf>
            <status value="final"></status>
            <code>
               <text value="Urea Nitrogen"></text>
            </code>
            <subject>
               <reference value="10008924"></reference>
            </subject>
            <effectiveDateTime value="2139-08-20T00:00:00+00:00"></effectiveDateTime>
            <valueQuantity>
               <value value="19.0"></value>
               <unit value="mg/dL"></unit>
            </valueQuantity>
         </Observation>
      </resource>
      <request>
         <method value="POST"></method>
         <url value="Observation"></url>
      </request>
   </entry>
   <entry>
      <resource>
         <Observation xmlns="http://hl7.org/fhir">
            <meta>
               <profile value="https://www.umontreal.ca/fhir/core/modul-labor/StructureDefinition/ObservationLab"></profile>
            </meta>
            <identifier>
               <use value="usual"></use>
               <type>
                  <coding>
                     <system value="http://terminology.hl7.org/CodeSystem/v2-0203"></system>
                     <code value="OBI"></code>
                     <display value="Optometrist license number"></display>
                  </coding>
               </type>
               <system value="http://www.umontreal.ca/labevents"></system>
               <value value="106457"></value>
               <assigner>
                  <reference value="10008924"></reference>
               </assigner>
            </identifier>
            <partOf>
               <reference value="22988516"></reference>
            </partOf>
            <status value="final"></status>
            <code>
               <text value="INR(PT)"></text>
            </code>
            <subject>
               <reference value="10008924"></reference>
            </subject>
            <effectiveDateTime value="2139-08-20T00:00:00+00:00"></effectiveDateTime>
            <valueQuantity>
               <value value="2.1"></value>
            </valueQuantity>
         </Observation>
      </resource>
      <request>
         <method value="POST"></method>
         <url value="Observation"></url>
      </request>
   </entry>
   <entry>
      <resource>
         <Observation xmlns="http://hl7.org/fhir">
            <meta>
               <profile value="https://www.umontreal.ca/fhir/core/modul-labor/StructureDefinition/ObservationLab"></profile>
            </meta>
            <identifier>
               <use value="usual"></use>
               <type>
                  <coding>
                     <system value="http://terminology.hl7.org/CodeSystem/v2-0203"></system>
                     <code value="OBI"></code>
                     <display value="Optometrist license number"></display>
                  </coding>
               </type>
               <system value="http://www.umontreal.ca/labevents"></system>
               <value value="106458"></value>
               <assigner>
                  <reference value="10008924"></reference>
               </assigner>
            </identifier>
            <partOf>
               <reference value="22988516"></reference>
            </partOf>
            <status value="final"></status>
            <code>
               <text value="PT"></text>
            </code>
            <subject>
               <reference value="10008924"></reference>
            </subject>
            <effectiveDateTime value="2139-08-20T00:00:00+00:00"></effectiveDateTime>
            <valueQuantity>
               <value value="22.8"></value>
               <unit value="sec"></unit>
            </valueQuantity>
         </Observation>
      </resource>
      <request>
         <method value="POST"></method>
         <url value="Observation"></url>
      </request>
   </entry>
   <entry>
      <resource>
         <Observation xmlns="http://hl7.org/fhir">
            <meta>
               <profile value="https://www.umontreal.ca/fhir/core/modul-labor/StructureDefinition/ObservationLab"></profile>
            </meta>
            <identifier>
               <use value="usual"></use>
               <type>
                  <coding>
                     <system value="http://terminology.hl7.org/CodeSystem/v2-0203"></system>
                     <code value="OBI"></code>
                     <display value="Optometrist license number"></display>
                  </coding>
               </type>
               <system value="http://www.umontreal.ca/labevents"></system>
               <value value="106459"></value>
               <assigner>
                  <reference value="10008924"></reference>
               </assigner>
            </identifier>
            <partOf>
               <reference value="22988516"></reference>
            </partOf>
            <status value="final"></status>
            <code>
               <text value="PTT"></text>
            </code>
            <subject>
               <reference value="10008924"></reference>
            </subject>
            <effectiveDateTime value="2139-08-20T00:00:00+00:00"></effectiveDateTime>
            <valueQuantity>
               <value value="53.0"></value>
               <unit value="sec"></unit>
            </valueQuantity>
         </Observation>
      </resource>
      <request>
         <method value="POST"></method>
         <url value="Observation"></url>
      </request>
   </entry>
   <entry>
      <resource>
         <Observation xmlns="http://hl7.org/fhir">
            <meta>
               <profile value="https://www.umontreal.ca/fhir/core/modul-labor/StructureDefinition/ObservationLab"></profile>
            </meta>
            <identifier>
               <use value="usual"></use>
               <type>
                  <coding>
                     <system value="http://terminology.hl7.org/CodeSystem/v2-0203"></system>
                     <code value="OBI"></code>
                     <display value="Optometrist license number"></display>
                  </coding>
               </type>
               <system value="http://www.umontreal.ca/labevents"></system>
               <value value="106460"></value>
               <assigner>
                  <reference value="10008924"></reference>
               </assigner>
            </identifier>
            <partOf>
               <reference value="22988516"></reference>
            </partOf>
            <status value="final"></status>
            <code>
               <text value="Lymphocytes"></text>
            </code>
            <subject>
               <reference value="10008924"></reference>
            </subject>
            <effectiveDateTime value="2139-08-20T00:00:00+00:00"></effectiveDateTime>
            <valueQuantity>
               <value value="54.0"></value>
               <unit value="%"></unit>
            </valueQuantity>
         </Observation>
      </resource>
      <request>
         <method value="POST"></method>
         <url value="Observation"></url>
      </request>
   </entry>
   <entry>
      <resource>
         <Observation xmlns="http://hl7.org/fhir">
            <meta>
               <profile value="https://www.umontreal.ca/fhir/core/modul-labor/StructureDefinition/ObservationLab"></profile>
            </meta>
            <identifier>
               <use value="usual"></use>
               <type>
                  <coding>
                     <system value="http://terminology.hl7.org/CodeSystem/v2-0203"></system>
                     <code value="OBI"></code>
                     <display value="Optometrist license number"></display>
                  </coding>
               </type>
               <system value="http://www.umontreal.ca/labevents"></system>
               <value value="106461"></value>
               <assigner>
                  <reference value="10008924"></reference>
               </assigner>
            </identifier>
            <partOf>
               <reference value="22988516"></reference>
            </partOf>
            <status value="final"></status>
            <code>
               <text value="Macrophage"></text>
            </code>
            <subject>
               <reference value="10008924"></reference>
            </subject>
            <effectiveDateTime value="2139-08-20T00:00:00+00:00"></effectiveDateTime>
            <valueQuantity>
               <value value="39.0"></value>
               <unit value="%"></unit>
            </valueQuantity>
         </Observation>
      </resource>
      <request>
         <method value="POST"></method>
         <url value="Observation"></url>
      </request>
   </entry>
   <entry>
      <resource>
         <Observation xmlns="http://hl7.org/fhir">
            <meta>
               <profile value="https://www.umontreal.ca/fhir/core/modul-labor/StructureDefinition/ObservationLab"></profile>
            </meta>
            <identifier>
               <use value="usual"></use>
               <type>
                  <coding>
                     <system value="http://terminology.hl7.org/CodeSystem/v2-0203"></system>
                     <code value="OBI"></code>
                     <display value="Optometrist license number"></display>
                  </coding>
               </type>
               <system value="http://www.umontreal.ca/labevents"></system>
               <value value="106462"></value>
               <assigner>
                  <reference value="10008924"></reference>
               </assigner>
            </identifier>
            <partOf>
               <reference value="22988516"></reference>
            </partOf>
            <status value="final"></status>
            <code>
               <text value="Mesothelial Cell"></text>
            </code>
            <subject>
               <reference value="10008924"></reference>
            </subject>
            <effectiveDateTime value="2139-08-20T00:00:00+00:00"></effectiveDateTime>
            <valueQuantity>
               <value value="2.0"></value>
               <unit value="%"></unit>
            </valueQuantity>
         </Observation>
      </resource>
      <request>
         <method value="POST"></method>
         <url value="Observation"></url>
      </request>
   </entry>
   <entry>
      <resource>
         <Observation xmlns="http://hl7.org/fhir">
            <meta>
               <profile value="https://www.umontreal.ca/fhir/core/modul-labor/StructureDefinition/ObservationLab"></profile>
            </meta>
            <identifier>
               <use value="usual"></use>
               <type>
                  <coding>
                     <system value="http://terminology.hl7.org/CodeSystem/v2-0203"></system>
                     <code value="OBI"></code>
                     <display value="Optometrist license number"></display>
                  </coding>
               </type>
               <system value="http://www.umontreal.ca/labevents"></system>
               <value value="106463"></value>
               <assigner>
                  <reference value="10008924"></reference>
               </assigner>
            </identifier>
            <partOf>
               <reference value="22988516"></reference>
            </partOf>
            <status value="final"></status>
            <code>
               <text value="Monocytes"></text>
            </code>
            <subject>
               <reference value="10008924"></reference>
            </subject>
            <effectiveDateTime value="2139-08-20T00:00:00+00:00"></effectiveDateTime>
            <valueQuantity>
               <value value="0.0"></value>
               <unit value="%"></unit>
            </valueQuantity>
         </Observation>
      </resource>
      <request>
         <method value="POST"></method>
         <url value="Observation"></url>
      </request>
   </entry>
   <entry>
      <resource>
         <Observation xmlns="http://hl7.org/fhir">
            <meta>
               <profile value="https://www.umontreal.ca/fhir/core/modul-labor/StructureDefinition/ObservationLab"></profile>
            </meta>
            <identifier>
               <use value="usual"></use>
               <type>
                  <coding>
                     <system value="http://terminology.hl7.org/CodeSystem/v2-0203"></system>
                     <code value="OBI"></code>
                     <display value="Optometrist license number"></display>
                  </coding>
               </type>
               <system value="http://www.umontreal.ca/labevents"></system>
               <value value="106464"></value>
               <assigner>
                  <reference value="10008924"></reference>
               </assigner>
            </identifier>
            <partOf>
               <reference value="22988516"></reference>
            </partOf>
            <status value="final"></status>
            <code>
               <text value="Polys"></text>
            </code>
            <subject>
               <reference value="10008924"></reference>
            </subject>
            <effectiveDateTime value="2139-08-20T00:00:00+00:00"></effectiveDateTime>
            <valueQuantity>
               <value value="5.0"></value>
               <unit value="%"></unit>
            </valueQuantity>
         </Observation>
      </resource>
      <request>
         <method value="POST"></method>
         <url value="Observation"></url>
      </request>
   </entry>
   <entry>
      <resource>
         <Observation xmlns="http://hl7.org/fhir">
            <meta>
               <profile value="https://www.umontreal.ca/fhir/core/modul-labor/StructureDefinition/ObservationLab"></profile>
            </meta>
            <identifier>
               <use value="usual"></use>
               <type>
                  <coding>
                     <system value="http://terminology.hl7.org/CodeSystem/v2-0203"></system>
                     <code value="OBI"></code>
                     <display value="Optometrist license number"></display>
                  </coding>
               </type>
               <system value="http://www.umontreal.ca/labevents"></system>
               <value value="106465"></value>
               <assigner>
                  <reference value="10008924"></reference>
               </assigner>
            </identifier>
            <partOf>
               <reference value="22988516"></reference>
            </partOf>
            <status value="final"></status>
            <code>
               <text value="RBC, Ascites"></text>
            </code>
            <subject>
               <reference value="10008924"></reference>
            </subject>
            <effectiveDateTime value="2139-08-20T00:00:00+00:00"></effectiveDateTime>
            <valueQuantity>
               <value value="1985.0"></value>
               <unit value="#/uL"></unit>
            </valueQuantity>
         </Observation>
      </resource>
      <request>
         <method value="POST"></method>
         <url value="Observation"></url>
      </request>
   </entry>
   <entry>
      <resource>
         <Observation xmlns="http://hl7.org/fhir">
            <meta>
               <profile value="https://www.umontreal.ca/fhir/core/modul-labor/StructureDefinition/ObservationLab"></profile>
            </meta>
            <identifier>
               <use value="usual"></use>
               <type>
                  <coding>
                     <system value="http://terminology.hl7.org/CodeSystem/v2-0203"></system>
                     <code value="OBI"></code>
                     <display value="Optometrist license number"></display>
                  </coding>
               </type>
               <system value="http://www.umontreal.ca/labevents"></system>
               <value value="106466"></value>
               <assigner>
                  <reference value="10008924"></reference>
               </assigner>
            </identifier>
            <partOf>
               <reference value="22988516"></reference>
            </partOf>
            <status value="final"></status>
            <code>
               <text value="Total Nucleated Cells, Ascites"></text>
            </code>
            <subject>
               <reference value="10008924"></reference>
            </subject>
            <effectiveDateTime value="2139-08-20T00:00:00+00:00"></effectiveDateTime>
            <valueQuantity>
               <value value="30.0"></value>
               <unit value="#/uL"></unit>
            </valueQuantity>
         </Observation>
      </resource>
      <request>
         <method value="POST"></method>
         <url value="Observation"></url>
      </request>
   </entry>
   <entry>
      <resource>
         <Observation xmlns="http://hl7.org/fhir">
            <meta>
               <profile value="https://www.umontreal.ca/fhir/core/modul-labor/StructureDefinition/ObservationLab"></profile>
            </meta>
            <identifier>
               <use value="usual"></use>
               <type>
                  <coding>
                     <system value="http://terminology.hl7.org/CodeSystem/v2-0203"></system>
                     <code value="OBI"></code>
                     <display value="Optometrist license number"></display>
                  </coding>
               </type>
               <system value="http://www.umontreal.ca/labevents"></system>
               <value value="106467"></value>
               <assigner>
                  <reference value="10008924"></reference>
               </assigner>
            </identifier>
            <partOf>
               <reference value="22988516"></reference>
            </partOf>
            <status value="final"></status>
            <code>
               <text value="Albumin, Ascites"></text>
            </code>
            <subject>
               <reference value="10008924"></reference>
            </subject>
            <effectiveDateTime value="2139-08-20T00:00:00+00:00"></effectiveDateTime>
            <valueQuantity>
               <value value="1.4"></value>
               <unit value="g/dL"></unit>
            </valueQuantity>
         </Observation>
      </resource>
      <request>
         <method value="POST"></method>
         <url value="Observation"></url>
      </request>
   </entry>
   <entry>
      <resource>
         <Observation xmlns="http://hl7.org/fhir">
            <meta>
               <profile value="https://www.umontreal.ca/fhir/core/modul-labor/StructureDefinition/ObservationLab"></profile>
            </meta>
            <identifier>
               <use value="usual"></use>
               <type>
                  <coding>
                     <system value="http://terminology.hl7.org/CodeSystem/v2-0203"></system>
                     <code value="OBI"></code>
                     <display value="Optometrist license number"></display>
                  </coding>
               </type>
               <system value="http://www.umontreal.ca/labevents"></system>
               <value value="106468"></value>
               <assigner>
                  <reference value="10008924"></reference>
               </assigner>
            </identifier>
            <partOf>
               <reference value="22988516"></reference>
            </partOf>
            <status value="final"></status>
            <code>
               <text value="Glucose, Ascites"></text>
            </code>
            <subject>
               <reference value="10008924"></reference>
            </subject>
            <effectiveDateTime value="2139-08-20T00:00:00+00:00"></effectiveDateTime>
            <valueQuantity>
               <value value="97.0"></value>
               <unit value="mg/dL"></unit>
            </valueQuantity>
         </Observation>
      </resource>
      <request>
         <method value="POST"></method>
         <url value="Observation"></url>
      </request>
   </entry>
   <entry>
      <resource>
         <Observation xmlns="http://hl7.org/fhir">
            <meta>
               <profile value="https://www.umontreal.ca/fhir/core/modul-labor/StructureDefinition/ObservationLab"></profile>
            </meta>
            <identifier>
               <use value="usual"></use>
               <type>
                  <coding>
                     <system value="http://terminology.hl7.org/CodeSystem/v2-0203"></system>
                     <code value="OBI"></code>
                     <display value="Optometrist license number"></display>
                  </coding>
               </type>
               <system value="http://www.umontreal.ca/labevents"></system>
               <value value="106469"></value>
               <assigner>
                  <reference value="10008924"></reference>
               </assigner>
            </identifier>
            <partOf>
               <reference value="22988516"></reference>
            </partOf>
            <status value="final"></status>
            <code>
               <text value="Lactate Dehydrogenase, Ascites"></text>
            </code>
            <subject>
               <reference value="10008924"></reference>
            </subject>
            <effectiveDateTime value="2139-08-20T00:00:00+00:00"></effectiveDateTime>
            <valueQuantity>
               <value value="67.0"></value>
               <unit value="IU/L"></unit>
            </valueQuantity>
         </Observation>
      </resource>
      <request>
         <method value="POST"></method>
         <url value="Observation"></url>
      </request>
   </entry>
   <entry>
      <resource>
         <Observation xmlns="http://hl7.org/fhir">
            <meta>
               <profile value="https://www.umontreal.ca/fhir/core/modul-labor/StructureDefinition/ObservationLab"></profile>
            </meta>
            <identifier>
               <use value="usual"></use>
               <type>
                  <coding>
                     <system value="http://terminology.hl7.org/CodeSystem/v2-0203"></system>
                     <code value="OBI"></code>
                     <display value="Optometrist license number"></display>
                  </coding>
               </type>
               <system value="http://www.umontreal.ca/labevents"></system>
               <value value="106470"></value>
               <assigner>
                  <reference value="10008924"></reference>
               </assigner>
            </identifier>
            <partOf>
               <reference value="22988516"></reference>
            </partOf>
            <status value="final"></status>
            <code>
               <text value="Total Protein, Ascites"></text>
            </code>
            <subject>
               <reference value="10008924"></reference>
            </subject>
            <effectiveDateTime value="2139-08-20T00:00:00+00:00"></effectiveDateTime>
            <valueQuantity>
               <value value="2.6"></value>
               <unit value="g/dL"></unit>
            </valueQuantity>
         </Observation>
      </resource>
      <request>
         <method value="POST"></method>
         <url value="Observation"></url>
      </request>
   </entry>
   <entry>
      <resource>
         <Observation xmlns="http://hl7.org/fhir">
            <meta>
               <profile value="https://www.umontreal.ca/fhir/core/modul-labor/StructureDefinition/ObservationLab"></profile>
            </meta>
            <identifier>
               <use value="usual"></use>
               <type>
                  <coding>
                     <system value="http://terminology.hl7.org/CodeSystem/v2-0203"></system>
                     <code value="OBI"></code>
                     <display value="Optometrist license number"></display>
                  </coding>
               </type>
               <system value="http://www.umontreal.ca/labevents"></system>
               <value value="106471"></value>
               <assigner>
                  <reference value="10008924"></reference>
               </assigner>
            </identifier>
            <partOf>
               <reference value="22988516"></reference>
            </partOf>
            <status value="final"></status>
            <code>
               <text value="Hematocrit"></text>
            </code>
            <subject>
               <reference value="10008924"></reference>
            </subject>
            <effectiveDateTime value="2139-08-20T00:00:00+00:00"></effectiveDateTime>
            <valueQuantity>
               <value value="31.2"></value>
               <unit value="%"></unit>
            </valueQuantity>
         </Observation>
      </resource>
      <request>
         <method value="POST"></method>
         <url value="Observation"></url>
      </request>
   </entry>
   <entry>
      <resource>
         <Observation xmlns="http://hl7.org/fhir">
            <meta>
               <profile value="https://www.umontreal.ca/fhir/core/modul-labor/StructureDefinition/ObservationLab"></profile>
            </meta>
            <identifier>
               <use value="usual"></use>
               <type>
                  <coding>
                     <system value="http://terminology.hl7.org/CodeSystem/v2-0203"></system>
                     <code value="OBI"></code>
                     <display value="Optometrist license number"></display>
                  </coding>
               </type>
               <system value="http://www.umontreal.ca/labevents"></system>
               <value value="106472"></value>
               <assigner>
                  <reference value="10008924"></reference>
               </assigner>
            </identifier>
            <partOf>
               <reference value="22988516"></reference>
            </partOf>
            <status value="final"></status>
            <code>
               <text value="Hematocrit"></text>
            </code>
            <subject>
               <reference value="10008924"></reference>
            </subject>
            <effectiveDateTime value="2139-08-20T00:00:00+00:00"></effectiveDateTime>
            <valueQuantity>
               <value value="30.2"></value>
               <unit value="%"></unit>
            </valueQuantity>
         </Observation>
      </resource>
      <request>
         <method value="POST"></method>
         <url value="Observation"></url>
      </request>
   </entry>
   <entry>
      <resource>
         <Observation xmlns="http://hl7.org/fhir">
            <meta>
               <profile value="https://www.umontreal.ca/fhir/core/modul-labor/StructureDefinition/ObservationLab"></profile>
            </meta>
            <identifier>
               <use value="usual"></use>
               <type>
                  <coding>
                     <system value="http://terminology.hl7.org/CodeSystem/v2-0203"></system>
                     <code value="OBI"></code>
                     <display value="Optometrist license number"></display>
                  </coding>
               </type>
               <system value="http://www.umontreal.ca/labevents"></system>
               <value value="106473"></value>
               <assigner>
                  <reference value="10008924"></reference>
               </assigner>
            </identifier>
            <partOf>
               <reference value="22988516"></reference>
            </partOf>
            <status value="final"></status>
            <code>
               <text value="Alanine Aminotransferase (ALT)"></text>
            </code>
            <subject>
               <reference value="10008924"></reference>
            </subject>
            <effectiveDateTime value="2139-08-21T00:00:00+00:00"></effectiveDateTime>
            <valueQuantity>
               <value value="24.0"></value>
               <unit value="IU/L"></unit>
            </valueQuantity>
         </Observation>
      </resource>
      <request>
         <method value="POST"></method>
         <url value="Observation"></url>
      </request>
   </entry>
   <entry>
      <resource>
         <Observation xmlns="http://hl7.org/fhir">
            <meta>
               <profile value="https://www.umontreal.ca/fhir/core/modul-labor/StructureDefinition/ObservationLab"></profile>
            </meta>
            <identifier>
               <use value="usual"></use>
               <type>
                  <coding>
                     <system value="http://terminology.hl7.org/CodeSystem/v2-0203"></system>
                     <code value="OBI"></code>
                     <display value="Optometrist license number"></display>
                  </coding>
               </type>
               <system value="http://www.umontreal.ca/labevents"></system>
               <value value="106474"></value>
               <assigner>
                  <reference value="10008924"></reference>
               </assigner>
            </identifier>
            <partOf>
               <reference value="22988516"></reference>
            </partOf>
            <status value="final"></status>
            <code>
               <text value="Albumin"></text>
            </code>
            <subject>
               <reference value="10008924"></reference>
            </subject>
            <effectiveDateTime value="2139-08-21T00:00:00+00:00"></effectiveDateTime>
            <valueQuantity>
               <value value="3.3"></value>
               <unit value="g/dL"></unit>
            </valueQuantity>
         </Observation>
      </resource>
      <request>
         <method value="POST"></method>
         <url value="Observation"></url>
      </request>
   </entry>
   <entry>
      <resource>
         <Observation xmlns="http://hl7.org/fhir">
            <meta>
               <profile value="https://www.umontreal.ca/fhir/core/modul-labor/StructureDefinition/ObservationLab"></profile>
            </meta>
            <identifier>
               <use value="usual"></use>
               <type>
                  <coding>
                     <system value="http://terminology.hl7.org/CodeSystem/v2-0203"></system>
                     <code value="OBI"></code>
                     <display value="Optometrist license number"></display>
                  </coding>
               </type>
               <system value="http://www.umontreal.ca/labevents"></system>
               <value value="106475"></value>
               <assigner>
                  <reference value="10008924"></reference>
               </assigner>
            </identifier>
            <partOf>
               <reference value="22988516"></reference>
            </partOf>
            <status value="final"></status>
            <code>
               <text value="Alkaline Phosphatase"></text>
            </code>
            <subject>
               <reference value="10008924"></reference>
            </subject>
            <effectiveDateTime value="2139-08-21T00:00:00+00:00"></effectiveDateTime>
            <valueQuantity>
               <value value="144.0"></value>
               <unit value="IU/L"></unit>
            </valueQuantity>
         </Observation>
      </resource>
      <request>
         <method value="POST"></method>
         <url value="Observation"></url>
      </request>
   </entry>
   <entry>
      <resource>
         <Observation xmlns="http://hl7.org/fhir">
            <meta>
               <profile value="https://www.umontreal.ca/fhir/core/modul-labor/StructureDefinition/ObservationLab"></profile>
            </meta>
            <identifier>
               <use value="usual"></use>
               <type>
                  <coding>
                     <system value="http://terminology.hl7.org/CodeSystem/v2-0203"></system>
                     <code value="OBI"></code>
                     <display value="Optometrist license number"></display>
                  </coding>
               </type>
               <system value="http://www.umontreal.ca/labevents"></system>
               <value value="106476"></value>
               <assigner>
                  <reference value="10008924"></reference>
               </assigner>
            </identifier>
            <partOf>
               <reference value="22988516"></reference>
            </partOf>
            <status value="final"></status>
            <code>
               <text value="Anion Gap"></text>
            </code>
            <subject>
               <reference value="10008924"></reference>
            </subject>
            <effectiveDateTime value="2139-08-21T00:00:00+00:00"></effectiveDateTime>
            <valueQuantity>
               <value value="12.0"></value>
               <unit value="mEq/L"></unit>
            </valueQuantity>
         </Observation>
      </resource>
      <request>
         <method value="POST"></method>
         <url value="Observation"></url>
      </request>
   </entry>
   <entry>
      <resource>
         <Observation xmlns="http://hl7.org/fhir">
            <meta>
               <profile value="https://www.umontreal.ca/fhir/core/modul-labor/StructureDefinition/ObservationLab"></profile>
            </meta>
            <identifier>
               <use value="usual"></use>
               <type>
                  <coding>
                     <system value="http://terminology.hl7.org/CodeSystem/v2-0203"></system>
                     <code value="OBI"></code>
                     <display value="Optometrist license number"></display>
                  </coding>
               </type>
               <system value="http://www.umontreal.ca/labevents"></system>
               <value value="106477"></value>
               <assigner>
                  <reference value="10008924"></reference>
               </assigner>
            </identifier>
            <partOf>
               <reference value="22988516"></reference>
            </partOf>
            <status value="final"></status>
            <code>
               <text value="Asparate Aminotransferase (AST)"></text>
            </code>
            <subject>
               <reference value="10008924"></reference>
            </subject>
            <effectiveDateTime value="2139-08-21T00:00:00+00:00"></effectiveDateTime>
            <valueQuantity>
               <value value="90.0"></value>
               <unit value="IU/L"></unit>
            </valueQuantity>
         </Observation>
      </resource>
      <request>
         <method value="POST"></method>
         <url value="Observation"></url>
      </request>
   </entry>
   <entry>
      <resource>
         <Observation xmlns="http://hl7.org/fhir">
            <meta>
               <profile value="https://www.umontreal.ca/fhir/core/modul-labor/StructureDefinition/ObservationLab"></profile>
            </meta>
            <identifier>
               <use value="usual"></use>
               <type>
                  <coding>
                     <system value="http://terminology.hl7.org/CodeSystem/v2-0203"></system>
                     <code value="OBI"></code>
                     <display value="Optometrist license number"></display>
                  </coding>
               </type>
               <system value="http://www.umontreal.ca/labevents"></system>
               <value value="106478"></value>
               <assigner>
                  <reference value="10008924"></reference>
               </assigner>
            </identifier>
            <partOf>
               <reference value="22988516"></reference>
            </partOf>
            <status value="final"></status>
            <code>
               <text value="Bicarbonate"></text>
            </code>
            <subject>
               <reference value="10008924"></reference>
            </subject>
            <effectiveDateTime value="2139-08-21T00:00:00+00:00"></effectiveDateTime>
            <valueQuantity>
               <value value="21.0"></value>
               <unit value="mEq/L"></unit>
            </valueQuantity>
         </Observation>
      </resource>
      <request>
         <method value="POST"></method>
         <url value="Observation"></url>
      </request>
   </entry>
   <entry>
      <resource>
         <Observation xmlns="http://hl7.org/fhir">
            <meta>
               <profile value="https://www.umontreal.ca/fhir/core/modul-labor/StructureDefinition/ObservationLab"></profile>
            </meta>
            <identifier>
               <use value="usual"></use>
               <type>
                  <coding>
                     <system value="http://terminology.hl7.org/CodeSystem/v2-0203"></system>
                     <code value="OBI"></code>
                     <display value="Optometrist license number"></display>
                  </coding>
               </type>
               <system value="http://www.umontreal.ca/labevents"></system>
               <value value="106479"></value>
               <assigner>
                  <reference value="10008924"></reference>
               </assigner>
            </identifier>
            <partOf>
               <reference value="22988516"></reference>
            </partOf>
            <status value="final"></status>
            <code>
               <text value="Bilirubin, Total"></text>
            </code>
            <subject>
               <reference value="10008924"></reference>
            </subject>
            <effectiveDateTime value="2139-08-21T00:00:00+00:00"></effectiveDateTime>
            <valueQuantity>
               <value value="3.9"></value>
               <unit value="mg/dL"></unit>
            </valueQuantity>
         </Observation>
      </resource>
      <request>
         <method value="POST"></method>
         <url value="Observation"></url>
      </request>
   </entry>
   <entry>
      <resource>
         <Observation xmlns="http://hl7.org/fhir">
            <meta>
               <profile value="https://www.umontreal.ca/fhir/core/modul-labor/StructureDefinition/ObservationLab"></profile>
            </meta>
            <identifier>
               <use value="usual"></use>
               <type>
                  <coding>
                     <system value="http://terminology.hl7.org/CodeSystem/v2-0203"></system>
                     <code value="OBI"></code>
                     <display value="Optometrist license number"></display>
                  </coding>
               </type>
               <system value="http://www.umontreal.ca/labevents"></system>
               <value value="106480"></value>
               <assigner>
                  <reference value="10008924"></reference>
               </assigner>
            </identifier>
            <partOf>
               <reference value="22988516"></reference>
            </partOf>
            <status value="final"></status>
            <code>
               <text value="Calcium, Total"></text>
            </code>
            <subject>
               <reference value="10008924"></reference>
            </subject>
            <effectiveDateTime value="2139-08-21T00:00:00+00:00"></effectiveDateTime>
            <valueQuantity>
               <value value="8.9"></value>
               <unit value="mg/dL"></unit>
            </valueQuantity>
         </Observation>
      </resource>
      <request>
         <method value="POST"></method>
         <url value="Observation"></url>
      </request>
   </entry>
   <entry>
      <resource>
         <Observation xmlns="http://hl7.org/fhir">
            <meta>
               <profile value="https://www.umontreal.ca/fhir/core/modul-labor/StructureDefinition/ObservationLab"></profile>
            </meta>
            <identifier>
               <use value="usual"></use>
               <type>
                  <coding>
                     <system value="http://terminology.hl7.org/CodeSystem/v2-0203"></system>
                     <code value="OBI"></code>
                     <display value="Optometrist license number"></display>
                  </coding>
               </type>
               <system value="http://www.umontreal.ca/labevents"></system>
               <value value="106481"></value>
               <assigner>
                  <reference value="10008924"></reference>
               </assigner>
            </identifier>
            <partOf>
               <reference value="22988516"></reference>
            </partOf>
            <status value="final"></status>
            <code>
               <text value="Chloride"></text>
            </code>
            <subject>
               <reference value="10008924"></reference>
            </subject>
            <effectiveDateTime value="2139-08-21T00:00:00+00:00"></effectiveDateTime>
            <valueQuantity>
               <value value="101.0"></value>
               <unit value="mEq/L"></unit>
            </valueQuantity>
         </Observation>
      </resource>
      <request>
         <method value="POST"></method>
         <url value="Observation"></url>
      </request>
   </entry>
   <entry>
      <resource>
         <Observation xmlns="http://hl7.org/fhir">
            <meta>
               <profile value="https://www.umontreal.ca/fhir/core/modul-labor/StructureDefinition/ObservationLab"></profile>
            </meta>
            <identifier>
               <use value="usual"></use>
               <type>
                  <coding>
                     <system value="http://terminology.hl7.org/CodeSystem/v2-0203"></system>
                     <code value="OBI"></code>
                     <display value="Optometrist license number"></display>
                  </coding>
               </type>
               <system value="http://www.umontreal.ca/labevents"></system>
               <value value="106482"></value>
               <assigner>
                  <reference value="10008924"></reference>
               </assigner>
            </identifier>
            <partOf>
               <reference value="22988516"></reference>
            </partOf>
            <status value="final"></status>
            <code>
               <text value="Creatinine"></text>
            </code>
            <subject>
               <reference value="10008924"></reference>
            </subject>
            <effectiveDateTime value="2139-08-21T00:00:00+00:00"></effectiveDateTime>
            <valueQuantity>
               <value value="1.8"></value>
               <unit value="mg/dL"></unit>
            </valueQuantity>
         </Observation>
      </resource>
      <request>
         <method value="POST"></method>
         <url value="Observation"></url>
      </request>
   </entry>
   <entry>
      <resource>
         <Observation xmlns="http://hl7.org/fhir">
            <meta>
               <profile value="https://www.umontreal.ca/fhir/core/modul-labor/StructureDefinition/ObservationLab"></profile>
            </meta>
            <identifier>
               <use value="usual"></use>
               <type>
                  <coding>
                     <system value="http://terminology.hl7.org/CodeSystem/v2-0203"></system>
                     <code value="OBI"></code>
                     <display value="Optometrist license number"></display>
                  </coding>
               </type>
               <system value="http://www.umontreal.ca/labevents"></system>
               <value value="106483"></value>
               <assigner>
                  <reference value="10008924"></reference>
               </assigner>
            </identifier>
            <partOf>
               <reference value="22988516"></reference>
            </partOf>
            <status value="final"></status>
            <code>
               <text value="Glucose"></text>
            </code>
            <subject>
               <reference value="10008924"></reference>
            </subject>
            <effectiveDateTime value="2139-08-21T00:00:00+00:00"></effectiveDateTime>
            <valueQuantity>
               <value value="143.0"></value>
               <unit value="mg/dL"></unit>
            </valueQuantity>
            <note>
               <text value="IF FASTING, 70-100 NORMAL, &gt;125 PROVISIONAL DIABETES."></text>
            </note>
         </Observation>
      </resource>
      <request>
         <method value="POST"></method>
         <url value="Observation"></url>
      </request>
   </entry>
   <entry>
      <resource>
         <Observation xmlns="http://hl7.org/fhir">
            <meta>
               <profile value="https://www.umontreal.ca/fhir/core/modul-labor/StructureDefinition/ObservationLab"></profile>
            </meta>
            <identifier>
               <use value="usual"></use>
               <type>
                  <coding>
                     <system value="http://terminology.hl7.org/CodeSystem/v2-0203"></system>
                     <code value="OBI"></code>
                     <display value="Optometrist license number"></display>
                  </coding>
               </type>
               <system value="http://www.umontreal.ca/labevents"></system>
               <value value="106484"></value>
               <assigner>
                  <reference value="10008924"></reference>
               </assigner>
            </identifier>
            <partOf>
               <reference value="22988516"></reference>
            </partOf>
            <status value="final"></status>
            <code>
               <text value="Lactate Dehydrogenase (LD)"></text>
            </code>
            <subject>
               <reference value="10008924"></reference>
            </subject>
            <effectiveDateTime value="2139-08-21T00:00:00+00:00"></effectiveDateTime>
            <valueQuantity>
               <value value="214.0"></value>
               <unit value="IU/L"></unit>
            </valueQuantity>
         </Observation>
      </resource>
      <request>
         <method value="POST"></method>
         <url value="Observation"></url>
      </request>
   </entry>
   <entry>
      <resource>
         <Observation xmlns="http://hl7.org/fhir">
            <meta>
               <profile value="https://www.umontreal.ca/fhir/core/modul-labor/StructureDefinition/ObservationLab"></profile>
            </meta>
            <identifier>
               <use value="usual"></use>
               <type>
                  <coding>
                     <system value="http://terminology.hl7.org/CodeSystem/v2-0203"></system>
                     <code value="OBI"></code>
                     <display value="Optometrist license number"></display>
                  </coding>
               </type>
               <system value="http://www.umontreal.ca/labevents"></system>
               <value value="106485"></value>
               <assigner>
                  <reference value="10008924"></reference>
               </assigner>
            </identifier>
            <partOf>
               <reference value="22988516"></reference>
            </partOf>
            <status value="final"></status>
            <code>
               <text value="Magnesium"></text>
            </code>
            <subject>
               <reference value="10008924"></reference>
            </subject>
            <effectiveDateTime value="2139-08-21T00:00:00+00:00"></effectiveDateTime>
            <valueQuantity>
               <value value="1.3"></value>
               <unit value="mg/dL"></unit>
            </valueQuantity>
         </Observation>
      </resource>
      <request>
         <method value="POST"></method>
         <url value="Observation"></url>
      </request>
   </entry>
   <entry>
      <resource>
         <Observation xmlns="http://hl7.org/fhir">
            <meta>
               <profile value="https://www.umontreal.ca/fhir/core/modul-labor/StructureDefinition/ObservationLab"></profile>
            </meta>
            <identifier>
               <use value="usual"></use>
               <type>
                  <coding>
                     <system value="http://terminology.hl7.org/CodeSystem/v2-0203"></system>
                     <code value="OBI"></code>
                     <display value="Optometrist license number"></display>
                  </coding>
               </type>
               <system value="http://www.umontreal.ca/labevents"></system>
               <value value="106486"></value>
               <assigner>
                  <reference value="10008924"></reference>
               </assigner>
            </identifier>
            <partOf>
               <reference value="22988516"></reference>
            </partOf>
            <status value="final"></status>
            <code>
               <text value="Phosphate"></text>
            </code>
            <subject>
               <reference value="10008924"></reference>
            </subject>
            <effectiveDateTime value="2139-08-21T00:00:00+00:00"></effectiveDateTime>
            <valueQuantity>
               <value value="2.4"></value>
               <unit value="mg/dL"></unit>
            </valueQuantity>
         </Observation>
      </resource>
      <request>
         <method value="POST"></method>
         <url value="Observation"></url>
      </request>
   </entry>
   <entry>
      <resource>
         <Observation xmlns="http://hl7.org/fhir">
            <meta>
               <profile value="https://www.umontreal.ca/fhir/core/modul-labor/StructureDefinition/ObservationLab"></profile>
            </meta>
            <identifier>
               <use value="usual"></use>
               <type>
                  <coding>
                     <system value="http://terminology.hl7.org/CodeSystem/v2-0203"></system>
                     <code value="OBI"></code>
                     <display value="Optometrist license number"></display>
                  </coding>
               </type>
               <system value="http://www.umontreal.ca/labevents"></system>
               <value value="106487"></value>
               <assigner>
                  <reference value="10008924"></reference>
               </assigner>
            </identifier>
            <partOf>
               <reference value="22988516"></reference>
            </partOf>
            <status value="final"></status>
            <code>
               <text value="Potassium"></text>
            </code>
            <subject>
               <reference value="10008924"></reference>
            </subject>
            <effectiveDateTime value="2139-08-21T00:00:00+00:00"></effectiveDateTime>
            <valueQuantity>
               <value value="3.1"></value>
               <unit value="mEq/L"></unit>
            </valueQuantity>
         </Observation>
      </resource>
      <request>
         <method value="POST"></method>
         <url value="Observation"></url>
      </request>
   </entry>
   <entry>
      <resource>
         <Observation xmlns="http://hl7.org/fhir">
            <meta>
               <profile value="https://www.umontreal.ca/fhir/core/modul-labor/StructureDefinition/ObservationLab"></profile>
            </meta>
            <identifier>
               <use value="usual"></use>
               <type>
                  <coding>
                     <system value="http://terminology.hl7.org/CodeSystem/v2-0203"></system>
                     <code value="OBI"></code>
                     <display value="Optometrist license number"></display>
                  </coding>
               </type>
               <system value="http://www.umontreal.ca/labevents"></system>
               <value value="106488"></value>
               <assigner>
                  <reference value="10008924"></reference>
               </assigner>
            </identifier>
            <partOf>
               <reference value="22988516"></reference>
            </partOf>
            <status value="final"></status>
            <code>
               <text value="Sodium"></text>
            </code>
            <subject>
               <reference value="10008924"></reference>
            </subject>
            <effectiveDateTime value="2139-08-21T00:00:00+00:00"></effectiveDateTime>
            <valueQuantity>
               <value value="131.0"></value>
               <unit value="mEq/L"></unit>
            </valueQuantity>
         </Observation>
      </resource>
      <request>
         <method value="POST"></method>
         <url value="Observation"></url>
      </request>
   </entry>
   <entry>
      <resource>
         <Observation xmlns="http://hl7.org/fhir">
            <meta>
               <profile value="https://www.umontreal.ca/fhir/core/modul-labor/StructureDefinition/ObservationLab"></profile>
            </meta>
            <identifier>
               <use value="usual"></use>
               <type>
                  <coding>
                     <system value="http://terminology.hl7.org/CodeSystem/v2-0203"></system>
                     <code value="OBI"></code>
                     <display value="Optometrist license number"></display>
                  </coding>
               </type>
               <system value="http://www.umontreal.ca/labevents"></system>
               <value value="106489"></value>
               <assigner>
                  <reference value="10008924"></reference>
               </assigner>
            </identifier>
            <partOf>
               <reference value="22988516"></reference>
            </partOf>
            <status value="final"></status>
            <code>
               <text value="Urea Nitrogen"></text>
            </code>
            <subject>
               <reference value="10008924"></reference>
            </subject>
            <effectiveDateTime value="2139-08-21T00:00:00+00:00"></effectiveDateTime>
            <valueQuantity>
               <value value="18.0"></value>
               <unit value="mg/dL"></unit>
            </valueQuantity>
         </Observation>
      </resource>
      <request>
         <method value="POST"></method>
         <url value="Observation"></url>
      </request>
   </entry>
   <entry>
      <resource>
         <Observation xmlns="http://hl7.org/fhir">
            <meta>
               <profile value="https://www.umontreal.ca/fhir/core/modul-labor/StructureDefinition/ObservationLab"></profile>
            </meta>
            <identifier>
               <use value="usual"></use>
               <type>
                  <coding>
                     <system value="http://terminology.hl7.org/CodeSystem/v2-0203"></system>
                     <code value="OBI"></code>
                     <display value="Optometrist license number"></display>
                  </coding>
               </type>
               <system value="http://www.umontreal.ca/labevents"></system>
               <value value="106490"></value>
               <assigner>
                  <reference value="10008924"></reference>
               </assigner>
            </identifier>
            <partOf>
               <reference value="22988516"></reference>
            </partOf>
            <status value="final"></status>
            <code>
               <text value="INR(PT)"></text>
            </code>
            <subject>
               <reference value="10008924"></reference>
            </subject>
            <effectiveDateTime value="2139-08-21T00:00:00+00:00"></effectiveDateTime>
            <valueQuantity>
               <value value="1.8"></value>
            </valueQuantity>
         </Observation>
      </resource>
      <request>
         <method value="POST"></method>
         <url value="Observation"></url>
      </request>
   </entry>
   <entry>
      <resource>
         <Observation xmlns="http://hl7.org/fhir">
            <meta>
               <profile value="https://www.umontreal.ca/fhir/core/modul-labor/StructureDefinition/ObservationLab"></profile>
            </meta>
            <identifier>
               <use value="usual"></use>
               <type>
                  <coding>
                     <system value="http://terminology.hl7.org/CodeSystem/v2-0203"></system>
                     <code value="OBI"></code>
                     <display value="Optometrist license number"></display>
                  </coding>
               </type>
               <system value="http://www.umontreal.ca/labevents"></system>
               <value value="106491"></value>
               <assigner>
                  <reference value="10008924"></reference>
               </assigner>
            </identifier>
            <partOf>
               <reference value="22988516"></reference>
            </partOf>
            <status value="final"></status>
            <code>
               <text value="PT"></text>
            </code>
            <subject>
               <reference value="10008924"></reference>
            </subject>
            <effectiveDateTime value="2139-08-21T00:00:00+00:00"></effectiveDateTime>
            <valueQuantity>
               <value value="20.1"></value>
               <unit value="sec"></unit>
            </valueQuantity>
         </Observation>
      </resource>
      <request>
         <method value="POST"></method>
         <url value="Observation"></url>
      </request>
   </entry>
   <entry>
      <resource>
         <Observation xmlns="http://hl7.org/fhir">
            <meta>
               <profile value="https://www.umontreal.ca/fhir/core/modul-labor/StructureDefinition/ObservationLab"></profile>
            </meta>
            <identifier>
               <use value="usual"></use>
               <type>
                  <coding>
                     <system value="http://terminology.hl7.org/CodeSystem/v2-0203"></system>
                     <code value="OBI"></code>
                     <display value="Optometrist license number"></display>
                  </coding>
               </type>
               <system value="http://www.umontreal.ca/labevents"></system>
               <value value="106492"></value>
               <assigner>
                  <reference value="10008924"></reference>
               </assigner>
            </identifier>
            <partOf>
               <reference value="22988516"></reference>
            </partOf>
            <status value="final"></status>
            <code>
               <text value="PTT"></text>
            </code>
            <subject>
               <reference value="10008924"></reference>
            </subject>
            <effectiveDateTime value="2139-08-21T00:00:00+00:00"></effectiveDateTime>
            <valueQuantity>
               <value value="50.7"></value>
               <unit value="sec"></unit>
            </valueQuantity>
         </Observation>
      </resource>
      <request>
         <method value="POST"></method>
         <url value="Observation"></url>
      </request>
   </entry>
   <entry>
      <resource>
         <Observation xmlns="http://hl7.org/fhir">
            <meta>
               <profile value="https://www.umontreal.ca/fhir/core/modul-labor/StructureDefinition/ObservationLab"></profile>
            </meta>
            <identifier>
               <use value="usual"></use>
               <type>
                  <coding>
                     <system value="http://terminology.hl7.org/CodeSystem/v2-0203"></system>
                     <code value="OBI"></code>
                     <display value="Optometrist license number"></display>
                  </coding>
               </type>
               <system value="http://www.umontreal.ca/labevents"></system>
               <value value="106493"></value>
               <assigner>
                  <reference value="10008924"></reference>
               </assigner>
            </identifier>
            <partOf>
               <reference value="22988516"></reference>
            </partOf>
            <status value="final"></status>
            <code>
               <text value="Hematocrit"></text>
            </code>
            <subject>
               <reference value="10008924"></reference>
            </subject>
            <effectiveDateTime value="2139-08-21T00:00:00+00:00"></effectiveDateTime>
            <valueQuantity>
               <value value="31.9"></value>
               <unit value="%"></unit>
            </valueQuantity>
         </Observation>
      </resource>
      <request>
         <method value="POST"></method>
         <url value="Observation"></url>
      </request>
   </entry>
   <entry>
      <resource>
         <Observation xmlns="http://hl7.org/fhir">
            <meta>
               <profile value="https://www.umontreal.ca/fhir/core/modul-labor/StructureDefinition/ObservationLab"></profile>
            </meta>
            <identifier>
               <use value="usual"></use>
               <type>
                  <coding>
                     <system value="http://terminology.hl7.org/CodeSystem/v2-0203"></system>
                     <code value="OBI"></code>
                     <display value="Optometrist license number"></display>
                  </coding>
               </type>
               <system value="http://www.umontreal.ca/labevents"></system>
               <value value="106494"></value>
               <assigner>
                  <reference value="10008924"></reference>
               </assigner>
            </identifier>
            <partOf>
               <reference value="22988516"></reference>
            </partOf>
            <status value="final"></status>
            <code>
               <text value="Hemoglobin"></text>
            </code>
            <subject>
               <reference value="10008924"></reference>
            </subject>
            <effectiveDateTime value="2139-08-21T00:00:00+00:00"></effectiveDateTime>
            <valueQuantity>
               <value value="10.5"></value>
               <unit value="g/dL"></unit>
            </valueQuantity>
         </Observation>
      </resource>
      <request>
         <method value="POST"></method>
         <url value="Observation"></url>
      </request>
   </entry>
   <entry>
      <resource>
         <Observation xmlns="http://hl7.org/fhir">
            <meta>
               <profile value="https://www.umontreal.ca/fhir/core/modul-labor/StructureDefinition/ObservationLab"></profile>
            </meta>
            <identifier>
               <use value="usual"></use>
               <type>
                  <coding>
                     <system value="http://terminology.hl7.org/CodeSystem/v2-0203"></system>
                     <code value="OBI"></code>
                     <display value="Optometrist license number"></display>
                  </coding>
               </type>
               <system value="http://www.umontreal.ca/labevents"></system>
               <value value="106495"></value>
               <assigner>
                  <reference value="10008924"></reference>
               </assigner>
            </identifier>
            <partOf>
               <reference value="22988516"></reference>
            </partOf>
            <status value="final"></status>
            <code>
               <text value="MCH"></text>
            </code>
            <subject>
               <reference value="10008924"></reference>
            </subject>
            <effectiveDateTime value="2139-08-21T00:00:00+00:00"></effectiveDateTime>
            <valueQuantity>
               <value value="30.1"></value>
               <unit value="pg"></unit>
            </valueQuantity>
         </Observation>
      </resource>
      <request>
         <method value="POST"></method>
         <url value="Observation"></url>
      </request>
   </entry>
   <entry>
      <resource>
         <Observation xmlns="http://hl7.org/fhir">
            <meta>
               <profile value="https://www.umontreal.ca/fhir/core/modul-labor/StructureDefinition/ObservationLab"></profile>
            </meta>
            <identifier>
               <use value="usual"></use>
               <type>
                  <coding>
                     <system value="http://terminology.hl7.org/CodeSystem/v2-0203"></system>
                     <code value="OBI"></code>
                     <display value="Optometrist license number"></display>
                  </coding>
               </type>
               <system value="http://www.umontreal.ca/labevents"></system>
               <value value="106496"></value>
               <assigner>
                  <reference value="10008924"></reference>
               </assigner>
            </identifier>
            <partOf>
               <reference value="22988516"></reference>
            </partOf>
            <status value="final"></status>
            <code>
               <text value="MCHC"></text>
            </code>
            <subject>
               <reference value="10008924"></reference>
            </subject>
            <effectiveDateTime value="2139-08-21T00:00:00+00:00"></effectiveDateTime>
            <valueQuantity>
               <value value="32.8"></value>
               <unit value="%"></unit>
            </valueQuantity>
         </Observation>
      </resource>
      <request>
         <method value="POST"></method>
         <url value="Observation"></url>
      </request>
   </entry>
   <entry>
      <resource>
         <Observation xmlns="http://hl7.org/fhir">
            <meta>
               <profile value="https://www.umontreal.ca/fhir/core/modul-labor/StructureDefinition/ObservationLab"></profile>
            </meta>
            <identifier>
               <use value="usual"></use>
               <type>
                  <coding>
                     <system value="http://terminology.hl7.org/CodeSystem/v2-0203"></system>
                     <code value="OBI"></code>
                     <display value="Optometrist license number"></display>
                  </coding>
               </type>
               <system value="http://www.umontreal.ca/labevents"></system>
               <value value="106497"></value>
               <assigner>
                  <reference value="10008924"></reference>
               </assigner>
            </identifier>
            <partOf>
               <reference value="22988516"></reference>
            </partOf>
            <status value="final"></status>
            <code>
               <text value="MCV"></text>
            </code>
            <subject>
               <reference value="10008924"></reference>
            </subject>
            <effectiveDateTime value="2139-08-21T00:00:00+00:00"></effectiveDateTime>
            <valueQuantity>
               <value value="92.0"></value>
               <unit value="fL"></unit>
            </valueQuantity>
         </Observation>
      </resource>
      <request>
         <method value="POST"></method>
         <url value="Observation"></url>
      </request>
   </entry>
   <entry>
      <resource>
         <Observation xmlns="http://hl7.org/fhir">
            <meta>
               <profile value="https://www.umontreal.ca/fhir/core/modul-labor/StructureDefinition/ObservationLab"></profile>
            </meta>
            <identifier>
               <use value="usual"></use>
               <type>
                  <coding>
                     <system value="http://terminology.hl7.org/CodeSystem/v2-0203"></system>
                     <code value="OBI"></code>
                     <display value="Optometrist license number"></display>
                  </coding>
               </type>
               <system value="http://www.umontreal.ca/labevents"></system>
               <value value="106498"></value>
               <assigner>
                  <reference value="10008924"></reference>
               </assigner>
            </identifier>
            <partOf>
               <reference value="22988516"></reference>
            </partOf>
            <status value="final"></status>
            <code>
               <text value="Platelet Count"></text>
            </code>
            <subject>
               <reference value="10008924"></reference>
            </subject>
            <effectiveDateTime value="2139-08-21T00:00:00+00:00"></effectiveDateTime>
            <valueQuantity>
               <value value="59.0"></value>
               <unit value="K/uL"></unit>
            </valueQuantity>
         </Observation>
      </resource>
      <request>
         <method value="POST"></method>
         <url value="Observation"></url>
      </request>
   </entry>
   <entry>
      <resource>
         <Observation xmlns="http://hl7.org/fhir">
            <meta>
               <profile value="https://www.umontreal.ca/fhir/core/modul-labor/StructureDefinition/ObservationLab"></profile>
            </meta>
            <identifier>
               <use value="usual"></use>
               <type>
                  <coding>
                     <system value="http://terminology.hl7.org/CodeSystem/v2-0203"></system>
                     <code value="OBI"></code>
                     <display value="Optometrist license number"></display>
                  </coding>
               </type>
               <system value="http://www.umontreal.ca/labevents"></system>
               <value value="106499"></value>
               <assigner>
                  <reference value="10008924"></reference>
               </assigner>
            </identifier>
            <partOf>
               <reference value="22988516"></reference>
            </partOf>
            <status value="final"></status>
            <code>
               <text value="RDW"></text>
            </code>
            <subject>
               <reference value="10008924"></reference>
            </subject>
            <effectiveDateTime value="2139-08-21T00:00:00+00:00"></effectiveDateTime>
            <valueQuantity>
               <value value="19.3"></value>
               <unit value="%"></unit>
            </valueQuantity>
         </Observation>
      </resource>
      <request>
         <method value="POST"></method>
         <url value="Observation"></url>
      </request>
   </entry>
   <entry>
      <resource>
         <Observation xmlns="http://hl7.org/fhir">
            <meta>
               <profile value="https://www.umontreal.ca/fhir/core/modul-labor/StructureDefinition/ObservationLab"></profile>
            </meta>
            <identifier>
               <use value="usual"></use>
               <type>
                  <coding>
                     <system value="http://terminology.hl7.org/CodeSystem/v2-0203"></system>
                     <code value="OBI"></code>
                     <display value="Optometrist license number"></display>
                  </coding>
               </type>
               <system value="http://www.umontreal.ca/labevents"></system>
               <value value="106500"></value>
               <assigner>
                  <reference value="10008924"></reference>
               </assigner>
            </identifier>
            <partOf>
               <reference value="22988516"></reference>
            </partOf>
            <status value="final"></status>
            <code>
               <text value="Red Blood Cells"></text>
            </code>
            <subject>
               <reference value="10008924"></reference>
            </subject>
            <effectiveDateTime value="2139-08-21T00:00:00+00:00"></effectiveDateTime>
            <valueQuantity>
               <value value="3.48"></value>
               <unit value="m/uL"></unit>
            </valueQuantity>
         </Observation>
      </resource>
      <request>
         <method value="POST"></method>
         <url value="Observation"></url>
      </request>
   </entry>
   <entry>
      <resource>
         <Observation xmlns="http://hl7.org/fhir">
            <meta>
               <profile value="https://www.umontreal.ca/fhir/core/modul-labor/StructureDefinition/ObservationLab"></profile>
            </meta>
            <identifier>
               <use value="usual"></use>
               <type>
                  <coding>
                     <system value="http://terminology.hl7.org/CodeSystem/v2-0203"></system>
                     <code value="OBI"></code>
                     <display value="Optometrist license number"></display>
                  </coding>
               </type>
               <system value="http://www.umontreal.ca/labevents"></system>
               <value value="106501"></value>
               <assigner>
                  <reference value="10008924"></reference>
               </assigner>
            </identifier>
            <partOf>
               <reference value="22988516"></reference>
            </partOf>
            <status value="final"></status>
            <code>
               <text value="White Blood Cells"></text>
            </code>
            <subject>
               <reference value="10008924"></reference>
            </subject>
            <effectiveDateTime value="2139-08-21T00:00:00+00:00"></effectiveDateTime>
            <valueQuantity>
               <value value="6.9"></value>
               <unit value="K/uL"></unit>
            </valueQuantity>
         </Observation>
      </resource>
      <request>
         <method value="POST"></method>
         <url value="Observation"></url>
      </request>
   </entry>
   <entry>
      <resource>
         <Observation xmlns="http://hl7.org/fhir">
            <meta>
               <profile value="https://www.umontreal.ca/fhir/core/modul-labor/StructureDefinition/ObservationLab"></profile>
            </meta>
            <identifier>
               <use value="usual"></use>
               <type>
                  <coding>
                     <system value="http://terminology.hl7.org/CodeSystem/v2-0203"></system>
                     <code value="OBI"></code>
                     <display value="Optometrist license number"></display>
                  </coding>
               </type>
               <system value="http://www.umontreal.ca/labevents"></system>
               <value value="106502"></value>
               <assigner>
                  <reference value="10008924"></reference>
               </assigner>
            </identifier>
            <partOf>
               <reference value="22988516"></reference>
            </partOf>
            <status value="final"></status>
            <code>
               <text value="Hematocrit"></text>
            </code>
            <subject>
               <reference value="10008924"></reference>
            </subject>
            <effectiveDateTime value="2139-08-22T00:00:00+00:00"></effectiveDateTime>
            <valueQuantity>
               <value value="28.9"></value>
               <unit value="%"></unit>
            </valueQuantity>
         </Observation>
      </resource>
      <request>
         <method value="POST"></method>
         <url value="Observation"></url>
      </request>
   </entry>
   <entry>
      <resource>
         <Observation xmlns="http://hl7.org/fhir">
            <meta>
               <profile value="https://www.umontreal.ca/fhir/core/modul-labor/StructureDefinition/ObservationLab"></profile>
            </meta>
            <identifier>
               <use value="usual"></use>
               <type>
                  <coding>
                     <system value="http://terminology.hl7.org/CodeSystem/v2-0203"></system>
                     <code value="OBI"></code>
                     <display value="Optometrist license number"></display>
                  </coding>
               </type>
               <system value="http://www.umontreal.ca/labevents"></system>
               <value value="106503"></value>
               <assigner>
                  <reference value="10008924"></reference>
               </assigner>
            </identifier>
            <partOf>
               <reference value="22988516"></reference>
            </partOf>
            <status value="final"></status>
            <code>
               <text value="Hemoglobin"></text>
            </code>
            <subject>
               <reference value="10008924"></reference>
            </subject>
            <effectiveDateTime value="2139-08-22T00:00:00+00:00"></effectiveDateTime>
            <valueQuantity>
               <value value="9.4"></value>
               <unit value="g/dL"></unit>
            </valueQuantity>
         </Observation>
      </resource>
      <request>
         <method value="POST"></method>
         <url value="Observation"></url>
      </request>
   </entry>
   <entry>
      <resource>
         <Observation xmlns="http://hl7.org/fhir">
            <meta>
               <profile value="https://www.umontreal.ca/fhir/core/modul-labor/StructureDefinition/ObservationLab"></profile>
            </meta>
            <identifier>
               <use value="usual"></use>
               <type>
                  <coding>
                     <system value="http://terminology.hl7.org/CodeSystem/v2-0203"></system>
                     <code value="OBI"></code>
                     <display value="Optometrist license number"></display>
                  </coding>
               </type>
               <system value="http://www.umontreal.ca/labevents"></system>
               <value value="106504"></value>
               <assigner>
                  <reference value="10008924"></reference>
               </assigner>
            </identifier>
            <partOf>
               <reference value="22988516"></reference>
            </partOf>
            <status value="final"></status>
            <code>
               <text value="MCH"></text>
            </code>
            <subject>
               <reference value="10008924"></reference>
            </subject>
            <effectiveDateTime value="2139-08-22T00:00:00+00:00"></effectiveDateTime>
            <valueQuantity>
               <value value="30.0"></value>
               <unit value="pg"></unit>
            </valueQuantity>
         </Observation>
      </resource>
      <request>
         <method value="POST"></method>
         <url value="Observation"></url>
      </request>
   </entry>
   <entry>
      <resource>
         <Observation xmlns="http://hl7.org/fhir">
            <meta>
               <profile value="https://www.umontreal.ca/fhir/core/modul-labor/StructureDefinition/ObservationLab"></profile>
            </meta>
            <identifier>
               <use value="usual"></use>
               <type>
                  <coding>
                     <system value="http://terminology.hl7.org/CodeSystem/v2-0203"></system>
                     <code value="OBI"></code>
                     <display value="Optometrist license number"></display>
                  </coding>
               </type>
               <system value="http://www.umontreal.ca/labevents"></system>
               <value value="106505"></value>
               <assigner>
                  <reference value="10008924"></reference>
               </assigner>
            </identifier>
            <partOf>
               <reference value="22988516"></reference>
            </partOf>
            <status value="final"></status>
            <code>
               <text value="MCHC"></text>
            </code>
            <subject>
               <reference value="10008924"></reference>
            </subject>
            <effectiveDateTime value="2139-08-22T00:00:00+00:00"></effectiveDateTime>
            <valueQuantity>
               <value value="32.6"></value>
               <unit value="%"></unit>
            </valueQuantity>
         </Observation>
      </resource>
      <request>
         <method value="POST"></method>
         <url value="Observation"></url>
      </request>
   </entry>
   <entry>
      <resource>
         <Observation xmlns="http://hl7.org/fhir">
            <meta>
               <profile value="https://www.umontreal.ca/fhir/core/modul-labor/StructureDefinition/ObservationLab"></profile>
            </meta>
            <identifier>
               <use value="usual"></use>
               <type>
                  <coding>
                     <system value="http://terminology.hl7.org/CodeSystem/v2-0203"></system>
                     <code value="OBI"></code>
                     <display value="Optometrist license number"></display>
                  </coding>
               </type>
               <system value="http://www.umontreal.ca/labevents"></system>
               <value value="106506"></value>
               <assigner>
                  <reference value="10008924"></reference>
               </assigner>
            </identifier>
            <partOf>
               <reference value="22988516"></reference>
            </partOf>
            <status value="final"></status>
            <code>
               <text value="MCV"></text>
            </code>
            <subject>
               <reference value="10008924"></reference>
            </subject>
            <effectiveDateTime value="2139-08-22T00:00:00+00:00"></effectiveDateTime>
            <valueQuantity>
               <value value="92.0"></value>
               <unit value="fL"></unit>
            </valueQuantity>
         </Observation>
      </resource>
      <request>
         <method value="POST"></method>
         <url value="Observation"></url>
      </request>
   </entry>
   <entry>
      <resource>
         <Observation xmlns="http://hl7.org/fhir">
            <meta>
               <profile value="https://www.umontreal.ca/fhir/core/modul-labor/StructureDefinition/ObservationLab"></profile>
            </meta>
            <identifier>
               <use value="usual"></use>
               <type>
                  <coding>
                     <system value="http://terminology.hl7.org/CodeSystem/v2-0203"></system>
                     <code value="OBI"></code>
                     <display value="Optometrist license number"></display>
                  </coding>
               </type>
               <system value="http://www.umontreal.ca/labevents"></system>
               <value value="106507"></value>
               <assigner>
                  <reference value="10008924"></reference>
               </assigner>
            </identifier>
            <partOf>
               <reference value="22988516"></reference>
            </partOf>
            <status value="final"></status>
            <code>
               <text value="Platelet Count"></text>
            </code>
            <subject>
               <reference value="10008924"></reference>
            </subject>
            <effectiveDateTime value="2139-08-22T00:00:00+00:00"></effectiveDateTime>
            <valueQuantity>
               <value value="39.0"></value>
               <unit value="K/uL"></unit>
            </valueQuantity>
         </Observation>
      </resource>
      <request>
         <method value="POST"></method>
         <url value="Observation"></url>
      </request>
   </entry>
   <entry>
      <resource>
         <Observation xmlns="http://hl7.org/fhir">
            <meta>
               <profile value="https://www.umontreal.ca/fhir/core/modul-labor/StructureDefinition/ObservationLab"></profile>
            </meta>
            <identifier>
               <use value="usual"></use>
               <type>
                  <coding>
                     <system value="http://terminology.hl7.org/CodeSystem/v2-0203"></system>
                     <code value="OBI"></code>
                     <display value="Optometrist license number"></display>
                  </coding>
               </type>
               <system value="http://www.umontreal.ca/labevents"></system>
               <value value="106508"></value>
               <assigner>
                  <reference value="10008924"></reference>
               </assigner>
            </identifier>
            <partOf>
               <reference value="22988516"></reference>
            </partOf>
            <status value="final"></status>
            <code>
               <text value="RDW"></text>
            </code>
            <subject>
               <reference value="10008924"></reference>
            </subject>
            <effectiveDateTime value="2139-08-22T00:00:00+00:00"></effectiveDateTime>
            <valueQuantity>
               <value value="19.7"></value>
               <unit value="%"></unit>
            </valueQuantity>
         </Observation>
      </resource>
      <request>
         <method value="POST"></method>
         <url value="Observation"></url>
      </request>
   </entry>
   <entry>
      <resource>
         <Observation xmlns="http://hl7.org/fhir">
            <meta>
               <profile value="https://www.umontreal.ca/fhir/core/modul-labor/StructureDefinition/ObservationLab"></profile>
            </meta>
            <identifier>
               <use value="usual"></use>
               <type>
                  <coding>
                     <system value="http://terminology.hl7.org/CodeSystem/v2-0203"></system>
                     <code value="OBI"></code>
                     <display value="Optometrist license number"></display>
                  </coding>
               </type>
               <system value="http://www.umontreal.ca/labevents"></system>
               <value value="106509"></value>
               <assigner>
                  <reference value="10008924"></reference>
               </assigner>
            </identifier>
            <partOf>
               <reference value="22988516"></reference>
            </partOf>
            <status value="final"></status>
            <code>
               <text value="Red Blood Cells"></text>
            </code>
            <subject>
               <reference value="10008924"></reference>
            </subject>
            <effectiveDateTime value="2139-08-22T00:00:00+00:00"></effectiveDateTime>
            <valueQuantity>
               <value value="3.14"></value>
               <unit value="m/uL"></unit>
            </valueQuantity>
         </Observation>
      </resource>
      <request>
         <method value="POST"></method>
         <url value="Observation"></url>
      </request>
   </entry>
   <entry>
      <resource>
         <Observation xmlns="http://hl7.org/fhir">
            <meta>
               <profile value="https://www.umontreal.ca/fhir/core/modul-labor/StructureDefinition/ObservationLab"></profile>
            </meta>
            <identifier>
               <use value="usual"></use>
               <type>
                  <coding>
                     <system value="http://terminology.hl7.org/CodeSystem/v2-0203"></system>
                     <code value="OBI"></code>
                     <display value="Optometrist license number"></display>
                  </coding>
               </type>
               <system value="http://www.umontreal.ca/labevents"></system>
               <value value="106510"></value>
               <assigner>
                  <reference value="10008924"></reference>
               </assigner>
            </identifier>
            <partOf>
               <reference value="22988516"></reference>
            </partOf>
            <status value="final"></status>
            <code>
               <text value="White Blood Cells"></text>
            </code>
            <subject>
               <reference value="10008924"></reference>
            </subject>
            <effectiveDateTime value="2139-08-22T00:00:00+00:00"></effectiveDateTime>
            <valueQuantity>
               <value value="6.3"></value>
               <unit value="K/uL"></unit>
            </valueQuantity>
         </Observation>
      </resource>
      <request>
         <method value="POST"></method>
         <url value="Observation"></url>
      </request>
   </entry>
   <entry>
      <resource>
         <Observation xmlns="http://hl7.org/fhir">
            <meta>
               <profile value="https://www.umontreal.ca/fhir/core/modul-labor/StructureDefinition/ObservationLab"></profile>
            </meta>
            <identifier>
               <use value="usual"></use>
               <type>
                  <coding>
                     <system value="http://terminology.hl7.org/CodeSystem/v2-0203"></system>
                     <code value="OBI"></code>
                     <display value="Optometrist license number"></display>
                  </coding>
               </type>
               <system value="http://www.umontreal.ca/labevents"></system>
               <value value="106511"></value>
               <assigner>
                  <reference value="10008924"></reference>
               </assigner>
            </identifier>
            <partOf>
               <reference value="22988516"></reference>
            </partOf>
            <status value="final"></status>
            <code>
               <text value="INR(PT)"></text>
            </code>
            <subject>
               <reference value="10008924"></reference>
            </subject>
            <effectiveDateTime value="2139-08-22T00:00:00+00:00"></effectiveDateTime>
            <valueQuantity>
               <value value="1.9"></value>
            </valueQuantity>
         </Observation>
      </resource>
      <request>
         <method value="POST"></method>
         <url value="Observation"></url>
      </request>
   </entry>
   <entry>
      <resource>
         <Observation xmlns="http://hl7.org/fhir">
            <meta>
               <profile value="https://www.umontreal.ca/fhir/core/modul-labor/StructureDefinition/ObservationLab"></profile>
            </meta>
            <identifier>
               <use value="usual"></use>
               <type>
                  <coding>
                     <system value="http://terminology.hl7.org/CodeSystem/v2-0203"></system>
                     <code value="OBI"></code>
                     <display value="Optometrist license number"></display>
                  </coding>
               </type>
               <system value="http://www.umontreal.ca/labevents"></system>
               <value value="106512"></value>
               <assigner>
                  <reference value="10008924"></reference>
               </assigner>
            </identifier>
            <partOf>
               <reference value="22988516"></reference>
            </partOf>
            <status value="final"></status>
            <code>
               <text value="PT"></text>
            </code>
            <subject>
               <reference value="10008924"></reference>
            </subject>
            <effectiveDateTime value="2139-08-22T00:00:00+00:00"></effectiveDateTime>
            <valueQuantity>
               <value value="20.5"></value>
               <unit value="sec"></unit>
            </valueQuantity>
         </Observation>
      </resource>
      <request>
         <method value="POST"></method>
         <url value="Observation"></url>
      </request>
   </entry>
   <entry>
      <resource>
         <Observation xmlns="http://hl7.org/fhir">
            <meta>
               <profile value="https://www.umontreal.ca/fhir/core/modul-labor/StructureDefinition/ObservationLab"></profile>
            </meta>
            <identifier>
               <use value="usual"></use>
               <type>
                  <coding>
                     <system value="http://terminology.hl7.org/CodeSystem/v2-0203"></system>
                     <code value="OBI"></code>
                     <display value="Optometrist license number"></display>
                  </coding>
               </type>
               <system value="http://www.umontreal.ca/labevents"></system>
               <value value="106513"></value>
               <assigner>
                  <reference value="10008924"></reference>
               </assigner>
            </identifier>
            <partOf>
               <reference value="22988516"></reference>
            </partOf>
            <status value="final"></status>
            <code>
               <text value="PTT"></text>
            </code>
            <subject>
               <reference value="10008924"></reference>
            </subject>
            <effectiveDateTime value="2139-08-22T00:00:00+00:00"></effectiveDateTime>
            <valueQuantity>
               <value value="54.5"></value>
               <unit value="sec"></unit>
            </valueQuantity>
         </Observation>
      </resource>
      <request>
         <method value="POST"></method>
         <url value="Observation"></url>
      </request>
   </entry>
   <entry>
      <resource>
         <Observation xmlns="http://hl7.org/fhir">
            <meta>
               <profile value="https://www.umontreal.ca/fhir/core/modul-labor/StructureDefinition/ObservationLab"></profile>
            </meta>
            <identifier>
               <use value="usual"></use>
               <type>
                  <coding>
                     <system value="http://terminology.hl7.org/CodeSystem/v2-0203"></system>
                     <code value="OBI"></code>
                     <display value="Optometrist license number"></display>
                  </coding>
               </type>
               <system value="http://www.umontreal.ca/labevents"></system>
               <value value="106514"></value>
               <assigner>
                  <reference value="10008924"></reference>
               </assigner>
            </identifier>
            <partOf>
               <reference value="22988516"></reference>
            </partOf>
            <status value="final"></status>
            <code>
               <text value="Alanine Aminotransferase (ALT)"></text>
            </code>
            <subject>
               <reference value="10008924"></reference>
            </subject>
            <effectiveDateTime value="2139-08-22T00:00:00+00:00"></effectiveDateTime>
            <valueQuantity>
               <value value="20.0"></value>
               <unit value="IU/L"></unit>
            </valueQuantity>
         </Observation>
      </resource>
      <request>
         <method value="POST"></method>
         <url value="Observation"></url>
      </request>
   </entry>
   <entry>
      <resource>
         <Observation xmlns="http://hl7.org/fhir">
            <meta>
               <profile value="https://www.umontreal.ca/fhir/core/modul-labor/StructureDefinition/ObservationLab"></profile>
            </meta>
            <identifier>
               <use value="usual"></use>
               <type>
                  <coding>
                     <system value="http://terminology.hl7.org/CodeSystem/v2-0203"></system>
                     <code value="OBI"></code>
                     <display value="Optometrist license number"></display>
                  </coding>
               </type>
               <system value="http://www.umontreal.ca/labevents"></system>
               <value value="106515"></value>
               <assigner>
                  <reference value="10008924"></reference>
               </assigner>
            </identifier>
            <partOf>
               <reference value="22988516"></reference>
            </partOf>
            <status value="final"></status>
            <code>
               <text value="Albumin"></text>
            </code>
            <subject>
               <reference value="10008924"></reference>
            </subject>
            <effectiveDateTime value="2139-08-22T00:00:00+00:00"></effectiveDateTime>
            <valueQuantity>
               <value value="3.5"></value>
               <unit value="g/dL"></unit>
            </valueQuantity>
         </Observation>
      </resource>
      <request>
         <method value="POST"></method>
         <url value="Observation"></url>
      </request>
   </entry>
   <entry>
      <resource>
         <Observation xmlns="http://hl7.org/fhir">
            <meta>
               <profile value="https://www.umontreal.ca/fhir/core/modul-labor/StructureDefinition/ObservationLab"></profile>
            </meta>
            <identifier>
               <use value="usual"></use>
               <type>
                  <coding>
                     <system value="http://terminology.hl7.org/CodeSystem/v2-0203"></system>
                     <code value="OBI"></code>
                     <display value="Optometrist license number"></display>
                  </coding>
               </type>
               <system value="http://www.umontreal.ca/labevents"></system>
               <value value="106516"></value>
               <assigner>
                  <reference value="10008924"></reference>
               </assigner>
            </identifier>
            <partOf>
               <reference value="22988516"></reference>
            </partOf>
            <status value="final"></status>
            <code>
               <text value="Alkaline Phosphatase"></text>
            </code>
            <subject>
               <reference value="10008924"></reference>
            </subject>
            <effectiveDateTime value="2139-08-22T00:00:00+00:00"></effectiveDateTime>
            <valueQuantity>
               <value value="119.0"></value>
               <unit value="IU/L"></unit>
            </valueQuantity>
         </Observation>
      </resource>
      <request>
         <method value="POST"></method>
         <url value="Observation"></url>
      </request>
   </entry>
   <entry>
      <resource>
         <Observation xmlns="http://hl7.org/fhir">
            <meta>
               <profile value="https://www.umontreal.ca/fhir/core/modul-labor/StructureDefinition/ObservationLab"></profile>
            </meta>
            <identifier>
               <use value="usual"></use>
               <type>
                  <coding>
                     <system value="http://terminology.hl7.org/CodeSystem/v2-0203"></system>
                     <code value="OBI"></code>
                     <display value="Optometrist license number"></display>
                  </coding>
               </type>
               <system value="http://www.umontreal.ca/labevents"></system>
               <value value="106517"></value>
               <assigner>
                  <reference value="10008924"></reference>
               </assigner>
            </identifier>
            <partOf>
               <reference value="22988516"></reference>
            </partOf>
            <status value="final"></status>
            <code>
               <text value="Anion Gap"></text>
            </code>
            <subject>
               <reference value="10008924"></reference>
            </subject>
            <effectiveDateTime value="2139-08-22T00:00:00+00:00"></effectiveDateTime>
            <valueQuantity>
               <value value="13.0"></value>
               <unit value="mEq/L"></unit>
            </valueQuantity>
         </Observation>
      </resource>
      <request>
         <method value="POST"></method>
         <url value="Observation"></url>
      </request>
   </entry>
   <entry>
      <resource>
         <Observation xmlns="http://hl7.org/fhir">
            <meta>
               <profile value="https://www.umontreal.ca/fhir/core/modul-labor/StructureDefinition/ObservationLab"></profile>
            </meta>
            <identifier>
               <use value="usual"></use>
               <type>
                  <coding>
                     <system value="http://terminology.hl7.org/CodeSystem/v2-0203"></system>
                     <code value="OBI"></code>
                     <display value="Optometrist license number"></display>
                  </coding>
               </type>
               <system value="http://www.umontreal.ca/labevents"></system>
               <value value="106518"></value>
               <assigner>
                  <reference value="10008924"></reference>
               </assigner>
            </identifier>
            <partOf>
               <reference value="22988516"></reference>
            </partOf>
            <status value="final"></status>
            <code>
               <text value="Asparate Aminotransferase (AST)"></text>
            </code>
            <subject>
               <reference value="10008924"></reference>
            </subject>
            <effectiveDateTime value="2139-08-22T00:00:00+00:00"></effectiveDateTime>
            <valueQuantity>
               <value value="68.0"></value>
               <unit value="IU/L"></unit>
            </valueQuantity>
         </Observation>
      </resource>
      <request>
         <method value="POST"></method>
         <url value="Observation"></url>
      </request>
   </entry>
   <entry>
      <resource>
         <Observation xmlns="http://hl7.org/fhir">
            <meta>
               <profile value="https://www.umontreal.ca/fhir/core/modul-labor/StructureDefinition/ObservationLab"></profile>
            </meta>
            <identifier>
               <use value="usual"></use>
               <type>
                  <coding>
                     <system value="http://terminology.hl7.org/CodeSystem/v2-0203"></system>
                     <code value="OBI"></code>
                     <display value="Optometrist license number"></display>
                  </coding>
               </type>
               <system value="http://www.umontreal.ca/labevents"></system>
               <value value="106519"></value>
               <assigner>
                  <reference value="10008924"></reference>
               </assigner>
            </identifier>
            <partOf>
               <reference value="22988516"></reference>
            </partOf>
            <status value="final"></status>
            <code>
               <text value="Bicarbonate"></text>
            </code>
            <subject>
               <reference value="10008924"></reference>
            </subject>
            <effectiveDateTime value="2139-08-22T00:00:00+00:00"></effectiveDateTime>
            <valueQuantity>
               <value value="22.0"></value>
               <unit value="mEq/L"></unit>
            </valueQuantity>
         </Observation>
      </resource>
      <request>
         <method value="POST"></method>
         <url value="Observation"></url>
      </request>
   </entry>
   <entry>
      <resource>
         <Observation xmlns="http://hl7.org/fhir">
            <meta>
               <profile value="https://www.umontreal.ca/fhir/core/modul-labor/StructureDefinition/ObservationLab"></profile>
            </meta>
            <identifier>
               <use value="usual"></use>
               <type>
                  <coding>
                     <system value="http://terminology.hl7.org/CodeSystem/v2-0203"></system>
                     <code value="OBI"></code>
                     <display value="Optometrist license number"></display>
                  </coding>
               </type>
               <system value="http://www.umontreal.ca/labevents"></system>
               <value value="106520"></value>
               <assigner>
                  <reference value="10008924"></reference>
               </assigner>
            </identifier>
            <partOf>
               <reference value="22988516"></reference>
            </partOf>
            <status value="final"></status>
            <code>
               <text value="Bilirubin, Total"></text>
            </code>
            <subject>
               <reference value="10008924"></reference>
            </subject>
            <effectiveDateTime value="2139-08-22T00:00:00+00:00"></effectiveDateTime>
            <valueQuantity>
               <value value="3.4"></value>
               <unit value="mg/dL"></unit>
            </valueQuantity>
         </Observation>
      </resource>
      <request>
         <method value="POST"></method>
         <url value="Observation"></url>
      </request>
   </entry>
   <entry>
      <resource>
         <Observation xmlns="http://hl7.org/fhir">
            <meta>
               <profile value="https://www.umontreal.ca/fhir/core/modul-labor/StructureDefinition/ObservationLab"></profile>
            </meta>
            <identifier>
               <use value="usual"></use>
               <type>
                  <coding>
                     <system value="http://terminology.hl7.org/CodeSystem/v2-0203"></system>
                     <code value="OBI"></code>
                     <display value="Optometrist license number"></display>
                  </coding>
               </type>
               <system value="http://www.umontreal.ca/labevents"></system>
               <value value="106521"></value>
               <assigner>
                  <reference value="10008924"></reference>
               </assigner>
            </identifier>
            <partOf>
               <reference value="22988516"></reference>
            </partOf>
            <status value="final"></status>
            <code>
               <text value="Chloride"></text>
            </code>
            <subject>
               <reference value="10008924"></reference>
            </subject>
            <effectiveDateTime value="2139-08-22T00:00:00+00:00"></effectiveDateTime>
            <valueQuantity>
               <value value="102.0"></value>
               <unit value="mEq/L"></unit>
            </valueQuantity>
         </Observation>
      </resource>
      <request>
         <method value="POST"></method>
         <url value="Observation"></url>
      </request>
   </entry>
   <entry>
      <resource>
         <Observation xmlns="http://hl7.org/fhir">
            <meta>
               <profile value="https://www.umontreal.ca/fhir/core/modul-labor/StructureDefinition/ObservationLab"></profile>
            </meta>
            <identifier>
               <use value="usual"></use>
               <type>
                  <coding>
                     <system value="http://terminology.hl7.org/CodeSystem/v2-0203"></system>
                     <code value="OBI"></code>
                     <display value="Optometrist license number"></display>
                  </coding>
               </type>
               <system value="http://www.umontreal.ca/labevents"></system>
               <value value="106522"></value>
               <assigner>
                  <reference value="10008924"></reference>
               </assigner>
            </identifier>
            <partOf>
               <reference value="22988516"></reference>
            </partOf>
            <status value="final"></status>
            <code>
               <text value="Creatinine"></text>
            </code>
            <subject>
               <reference value="10008924"></reference>
            </subject>
            <effectiveDateTime value="2139-08-22T00:00:00+00:00"></effectiveDateTime>
            <valueQuantity>
               <value value="1.3"></value>
               <unit value="mg/dL"></unit>
            </valueQuantity>
         </Observation>
      </resource>
      <request>
         <method value="POST"></method>
         <url value="Observation"></url>
      </request>
   </entry>
   <entry>
      <resource>
         <Observation xmlns="http://hl7.org/fhir">
            <meta>
               <profile value="https://www.umontreal.ca/fhir/core/modul-labor/StructureDefinition/ObservationLab"></profile>
            </meta>
            <identifier>
               <use value="usual"></use>
               <type>
                  <coding>
                     <system value="http://terminology.hl7.org/CodeSystem/v2-0203"></system>
                     <code value="OBI"></code>
                     <display value="Optometrist license number"></display>
                  </coding>
               </type>
               <system value="http://www.umontreal.ca/labevents"></system>
               <value value="106523"></value>
               <assigner>
                  <reference value="10008924"></reference>
               </assigner>
            </identifier>
            <partOf>
               <reference value="22988516"></reference>
            </partOf>
            <status value="final"></status>
            <code>
               <text value="Glucose"></text>
            </code>
            <subject>
               <reference value="10008924"></reference>
            </subject>
            <effectiveDateTime value="2139-08-22T00:00:00+00:00"></effectiveDateTime>
            <valueQuantity>
               <value value="103.0"></value>
               <unit value="mg/dL"></unit>
            </valueQuantity>
            <note>
               <text value="IF FASTING, 70-100 NORMAL, &gt;125 PROVISIONAL DIABETES."></text>
            </note>
         </Observation>
      </resource>
      <request>
         <method value="POST"></method>
         <url value="Observation"></url>
      </request>
   </entry>
   <entry>
      <resource>
         <Observation xmlns="http://hl7.org/fhir">
            <meta>
               <profile value="https://www.umontreal.ca/fhir/core/modul-labor/StructureDefinition/ObservationLab"></profile>
            </meta>
            <identifier>
               <use value="usual"></use>
               <type>
                  <coding>
                     <system value="http://terminology.hl7.org/CodeSystem/v2-0203"></system>
                     <code value="OBI"></code>
                     <display value="Optometrist license number"></display>
                  </coding>
               </type>
               <system value="http://www.umontreal.ca/labevents"></system>
               <value value="106524"></value>
               <assigner>
                  <reference value="10008924"></reference>
               </assigner>
            </identifier>
            <partOf>
               <reference value="22988516"></reference>
            </partOf>
            <status value="final"></status>
            <code>
               <text value="Lactate Dehydrogenase (LD)"></text>
            </code>
            <subject>
               <reference value="10008924"></reference>
            </subject>
            <effectiveDateTime value="2139-08-22T00:00:00+00:00"></effectiveDateTime>
            <valueQuantity>
               <value value="176.0"></value>
               <unit value="IU/L"></unit>
            </valueQuantity>
         </Observation>
      </resource>
      <request>
         <method value="POST"></method>
         <url value="Observation"></url>
      </request>
   </entry>
   <entry>
      <resource>
         <Observation xmlns="http://hl7.org/fhir">
            <meta>
               <profile value="https://www.umontreal.ca/fhir/core/modul-labor/StructureDefinition/ObservationLab"></profile>
            </meta>
            <identifier>
               <use value="usual"></use>
               <type>
                  <coding>
                     <system value="http://terminology.hl7.org/CodeSystem/v2-0203"></system>
                     <code value="OBI"></code>
                     <display value="Optometrist license number"></display>
                  </coding>
               </type>
               <system value="http://www.umontreal.ca/labevents"></system>
               <value value="106525"></value>
               <assigner>
                  <reference value="10008924"></reference>
               </assigner>
            </identifier>
            <partOf>
               <reference value="22988516"></reference>
            </partOf>
            <status value="final"></status>
            <code>
               <text value="Magnesium"></text>
            </code>
            <subject>
               <reference value="10008924"></reference>
            </subject>
            <effectiveDateTime value="2139-08-22T00:00:00+00:00"></effectiveDateTime>
            <valueQuantity>
               <value value="2.1"></value>
               <unit value="mg/dL"></unit>
            </valueQuantity>
         </Observation>
      </resource>
      <request>
         <method value="POST"></method>
         <url value="Observation"></url>
      </request>
   </entry>
   <entry>
      <resource>
         <Observation xmlns="http://hl7.org/fhir">
            <meta>
               <profile value="https://www.umontreal.ca/fhir/core/modul-labor/StructureDefinition/ObservationLab"></profile>
            </meta>
            <identifier>
               <use value="usual"></use>
               <type>
                  <coding>
                     <system value="http://terminology.hl7.org/CodeSystem/v2-0203"></system>
                     <code value="OBI"></code>
                     <display value="Optometrist license number"></display>
                  </coding>
               </type>
               <system value="http://www.umontreal.ca/labevents"></system>
               <value value="106526"></value>
               <assigner>
                  <reference value="10008924"></reference>
               </assigner>
            </identifier>
            <partOf>
               <reference value="22988516"></reference>
            </partOf>
            <status value="final"></status>
            <code>
               <text value="Phosphate"></text>
            </code>
            <subject>
               <reference value="10008924"></reference>
            </subject>
            <effectiveDateTime value="2139-08-22T00:00:00+00:00"></effectiveDateTime>
            <valueQuantity>
               <value value="2.5"></value>
               <unit value="mg/dL"></unit>
            </valueQuantity>
         </Observation>
      </resource>
      <request>
         <method value="POST"></method>
         <url value="Observation"></url>
      </request>
   </entry>
   <entry>
      <resource>
         <Observation xmlns="http://hl7.org/fhir">
            <meta>
               <profile value="https://www.umontreal.ca/fhir/core/modul-labor/StructureDefinition/ObservationLab"></profile>
            </meta>
            <identifier>
               <use value="usual"></use>
               <type>
                  <coding>
                     <system value="http://terminology.hl7.org/CodeSystem/v2-0203"></system>
                     <code value="OBI"></code>
                     <display value="Optometrist license number"></display>
                  </coding>
               </type>
               <system value="http://www.umontreal.ca/labevents"></system>
               <value value="106527"></value>
               <assigner>
                  <reference value="10008924"></reference>
               </assigner>
            </identifier>
            <partOf>
               <reference value="22988516"></reference>
            </partOf>
            <status value="final"></status>
            <code>
               <text value="Potassium"></text>
            </code>
            <subject>
               <reference value="10008924"></reference>
            </subject>
            <effectiveDateTime value="2139-08-22T00:00:00+00:00"></effectiveDateTime>
            <valueQuantity>
               <value value="3.7"></value>
               <unit value="mEq/L"></unit>
            </valueQuantity>
         </Observation>
      </resource>
      <request>
         <method value="POST"></method>
         <url value="Observation"></url>
      </request>
   </entry>
   <entry>
      <resource>
         <Observation xmlns="http://hl7.org/fhir">
            <meta>
               <profile value="https://www.umontreal.ca/fhir/core/modul-labor/StructureDefinition/ObservationLab"></profile>
            </meta>
            <identifier>
               <use value="usual"></use>
               <type>
                  <coding>
                     <system value="http://terminology.hl7.org/CodeSystem/v2-0203"></system>
                     <code value="OBI"></code>
                     <display value="Optometrist license number"></display>
                  </coding>
               </type>
               <system value="http://www.umontreal.ca/labevents"></system>
               <value value="106528"></value>
               <assigner>
                  <reference value="10008924"></reference>
               </assigner>
            </identifier>
            <partOf>
               <reference value="22988516"></reference>
            </partOf>
            <status value="final"></status>
            <code>
               <text value="Sodium"></text>
            </code>
            <subject>
               <reference value="10008924"></reference>
            </subject>
            <effectiveDateTime value="2139-08-22T00:00:00+00:00"></effectiveDateTime>
            <valueQuantity>
               <value value="133.0"></value>
               <unit value="mEq/L"></unit>
            </valueQuantity>
         </Observation>
      </resource>
      <request>
         <method value="POST"></method>
         <url value="Observation"></url>
      </request>
   </entry>
   <entry>
      <resource>
         <Observation xmlns="http://hl7.org/fhir">
            <meta>
               <profile value="https://www.umontreal.ca/fhir/core/modul-labor/StructureDefinition/ObservationLab"></profile>
            </meta>
            <identifier>
               <use value="usual"></use>
               <type>
                  <coding>
                     <system value="http://terminology.hl7.org/CodeSystem/v2-0203"></system>
                     <code value="OBI"></code>
                     <display value="Optometrist license number"></display>
                  </coding>
               </type>
               <system value="http://www.umontreal.ca/labevents"></system>
               <value value="106529"></value>
               <assigner>
                  <reference value="10008924"></reference>
               </assigner>
            </identifier>
            <partOf>
               <reference value="22988516"></reference>
            </partOf>
            <status value="final"></status>
            <code>
               <text value="Urea Nitrogen"></text>
            </code>
            <subject>
               <reference value="10008924"></reference>
            </subject>
            <effectiveDateTime value="2139-08-22T00:00:00+00:00"></effectiveDateTime>
            <valueQuantity>
               <value value="16.0"></value>
               <unit value="mg/dL"></unit>
            </valueQuantity>
         </Observation>
      </resource>
      <request>
         <method value="POST"></method>
         <url value="Observation"></url>
      </request>
   </entry>
</Bundle>