<Bundle xmlns="http://hl7.org/fhir">
   <type value="transaction"></type>
   <entry>
      <fullUrl value="urn:uuid:6fe69425-cabe-438a-9c05-6ea4324d6f7f"></fullUrl>
      <resource>
         <Patient xmlns="http://hl7.org/fhir">
            <meta>
               <profile value="https://www.medizininformatik-initiative.de/fhir/core/modul-person/StructureDefinition/Patient"></profile>
            </meta>
            <text>
               <status value="generated"></status>
               <div xmlns="http://www.w3.org/1999/xhtml"> 
                  <div class="hapiHeaderText">10004401 
                     <b>PATIENT_10004401 </b> 
                  </div> 
                  <table class="hapiPropertyTable"> 
                     <tbody> 
                        <tr> 
                           <td>Identifier</td> 
                           <td>10004401</td> 
                        </tr> 
                        <tr> 
                           <td>Address</td> 
                           <td> 
                              <span>Musterstrasse 1 </span> 
                              <br></br> 
                              <span>Berlin </span> 
                              <span>DE </span> 
                           </td> 
                        </tr> 
                        <tr> 
                           <td>Date of birth</td> 
                           <td> 
                              <span>01 January 2059</span> 
                           </td> 
                        </tr> 
                     </tbody> 
                  </table> 
               </div>
            </text>
            <identifier>
               <use value="usual"></use>
               <type>
                  <coding>
                     <system value="http://terminology.hl7.org/CodeSystem/v2-0203"></system>
                     <code value="MR"></code>
                  </coding>
               </type>
               <system value="http://www.umontreal.ca/patients"></system>
               <value value="10004401"></value>
            </identifier>
            <name>
               <use value="official"></use>
               <family value="Patient_10004401">
                  <extension url="http://hl7.org/fhir/StructureDefinition/humanname-own-name">
                     <valueString value="Patient_10004401"></valueString>
                  </extension>
               </family>
               <given value="10004401"></given>
            </name>
            <gender value="male"></gender>
            <birthDate value="2059-01-01">
               <extension url="http://hl7.org/fhir/StructureDefinition/data-absent-reason">
                  <valueCode value="masked"></valueCode>
               </extension>
            </birthDate>
            <deceasedDateTime value="2144-06-18T00:00:00+00:00"></deceasedDateTime>
            <address>
               <type value="postal"></type>
               <line value="Musterstrasse 1">
                  <extension url="http://hl7.org/fhir/StructureDefinition/iso21090-ADXP-streetName">
                     <valueString value="Musterstrasse"></valueString>
                  </extension>
                  <extension url="http://hl7.org/fhir/StructureDefinition/iso21090-ADXP-houseNumber">
                     <valueString value="1"></valueString>
                  </extension>
               </line>
               <city value="Berlin"></city>
               <postalCode value="12043"></postalCode>
               <country value="DE"></country>
            </address>
            <maritalStatus>
               <coding>
                  <system value="http://hl7.org/fhir/ValueSet/marital-status"></system>
                  <code value="M"></code>
                  <display value="Married"></display>
               </coding>
            </maritalStatus>
         </Patient>
      </resource>
      <request>
         <method value="POST"></method>
         <url value="Patient"></url>
         <ifNoneExist value="identifier=http://www.umontreal.ca/patients|10004401"></ifNoneExist>
      </request>
   </entry>
   <entry>
      <fullUrl value="urn:uuid:2cd27265-a906-45af-ac9d-9a51f1ac6aae"></fullUrl>
      <resource>
         <Organization xmlns="http://hl7.org/fhir">
            <identifier>
               <system value="http://www.umontreal.ca"></system>
               <value value="hospital"></value>
            </identifier>
            <type>
               <coding>
                  <system value="http://hl7.org/fhir/organization-type"></system>
                  <code value="prov"></code>
                  <display value="Healthcare Provider"></display>
               </coding>
            </type>
            <name value="IMI-Mimic Hospital"></name>
         </Organization>
      </resource>
      <request>
         <method value="POST"></method>
         <url value="Organization"></url>
         <ifNoneExist value="identifier=http://www.umontreal.ca|hospital"></ifNoneExist>
      </request>
   </entry>
   <entry>
      <fullUrl value="urn:uuid:686f6ec7-e259-4cd4-a372-7a973ce22ae4"></fullUrl>
      <resource>
         <Condition xmlns="http://hl7.org/fhir">
            <meta>
               <profile value="https://www.medizininformatik-initiative.de/fhir/core/modul-diagnose/StructureDefinition/Diagnose"></profile>
            </meta>
            <identifier>
               <system value="http://www.imi-mimic.de/diags"></system>
               <value value="null_15"></value>
            </identifier>
            <subject>
               <reference value="10004401"></reference>
            </subject>
            <recordedDate>
               <extension url="http://hl7.org/fhir/StructureDefinition/data-absent-reason">
                  <valueCode value="unknown"></valueCode>
               </extension>
            </recordedDate>
         </Condition>
      </resource>
      <request>
         <method value="POST"></method>
         <url value="Condition"></url>
         <ifNoneExist value="identifier=http://www.imi-mimic.de/diags|null_15"></ifNoneExist>
      </request>
   </entry>
   <entry>
      <fullUrl value="urn:uuid:d07dafca-e720-4bd2-abe2-0b9bb47840ae"></fullUrl>
      <resource>
         <Condition xmlns="http://hl7.org/fhir">
            <meta>
               <profile value="https://www.medizininformatik-initiative.de/fhir/core/modul-diagnose/StructureDefinition/Diagnose"></profile>
            </meta>
            <identifier>
               <system value="http://www.imi-mimic.de/diags"></system>
               <value value="null_14"></value>
            </identifier>
            <subject>
               <reference value="10004401"></reference>
            </subject>
            <recordedDate>
               <extension url="http://hl7.org/fhir/StructureDefinition/data-absent-reason">
                  <valueCode value="unknown"></valueCode>
               </extension>
            </recordedDate>
         </Condition>
      </resource>
      <request>
         <method value="POST"></method>
         <url value="Condition"></url>
         <ifNoneExist value="identifier=http://www.imi-mimic.de/diags|null_14"></ifNoneExist>
      </request>
   </entry>
   <entry>
      <fullUrl value="urn:uuid:96ba34ec-6522-433f-8e08-1328b6b76b71"></fullUrl>
      <resource>
         <Condition xmlns="http://hl7.org/fhir">
            <meta>
               <profile value="https://www.medizininformatik-initiative.de/fhir/core/modul-diagnose/StructureDefinition/Diagnose"></profile>
            </meta>
            <identifier>
               <system value="http://www.imi-mimic.de/diags"></system>
               <value value="null_13"></value>
            </identifier>
            <subject>
               <reference value="10004401"></reference>
            </subject>
            <recordedDate>
               <extension url="http://hl7.org/fhir/StructureDefinition/data-absent-reason">
                  <valueCode value="unknown"></valueCode>
               </extension>
            </recordedDate>
         </Condition>
      </resource>
      <request>
         <method value="POST"></method>
         <url value="Condition"></url>
         <ifNoneExist value="identifier=http://www.imi-mimic.de/diags|null_13"></ifNoneExist>
      </request>
   </entry>
   <entry>
      <fullUrl value="urn:uuid:ec6ab126-0d48-4e0c-bbb4-a36602969507"></fullUrl>
      <resource>
         <Condition xmlns="http://hl7.org/fhir">
            <meta>
               <profile value="https://www.medizininformatik-initiative.de/fhir/core/modul-diagnose/StructureDefinition/Diagnose"></profile>
            </meta>
            <identifier>
               <system value="http://www.imi-mimic.de/diags"></system>
               <value value="null_12"></value>
            </identifier>
            <subject>
               <reference value="10004401"></reference>
            </subject>
            <recordedDate>
               <extension url="http://hl7.org/fhir/StructureDefinition/data-absent-reason">
                  <valueCode value="unknown"></valueCode>
               </extension>
            </recordedDate>
         </Condition>
      </resource>
      <request>
         <method value="POST"></method>
         <url value="Condition"></url>
         <ifNoneExist value="identifier=http://www.imi-mimic.de/diags|null_12"></ifNoneExist>
      </request>
   </entry>
   <entry>
      <fullUrl value="urn:uuid:6837b472-c960-45b2-9ccb-052b4e0f5a5c"></fullUrl>
      <resource>
         <Condition xmlns="http://hl7.org/fhir">
            <meta>
               <profile value="https://www.medizininformatik-initiative.de/fhir/core/modul-diagnose/StructureDefinition/Diagnose"></profile>
            </meta>
            <identifier>
               <system value="http://www.imi-mimic.de/diags"></system>
               <value value="null_11"></value>
            </identifier>
            <subject>
               <reference value="10004401"></reference>
            </subject>
            <recordedDate>
               <extension url="http://hl7.org/fhir/StructureDefinition/data-absent-reason">
                  <valueCode value="unknown"></valueCode>
               </extension>
            </recordedDate>
         </Condition>
      </resource>
      <request>
         <method value="POST"></method>
         <url value="Condition"></url>
         <ifNoneExist value="identifier=http://www.imi-mimic.de/diags|null_11"></ifNoneExist>
      </request>
   </entry>
   <entry>
      <fullUrl value="urn:uuid:ebdda8c3-776b-4862-9ecf-d089a0eda84b"></fullUrl>
      <resource>
         <Condition xmlns="http://hl7.org/fhir">
            <meta>
               <profile value="https://www.medizininformatik-initiative.de/fhir/core/modul-diagnose/StructureDefinition/Diagnose"></profile>
            </meta>
            <identifier>
               <system value="http://www.imi-mimic.de/diags"></system>
               <value value="null_10"></value>
            </identifier>
            <subject>
               <reference value="10004401"></reference>
            </subject>
            <recordedDate>
               <extension url="http://hl7.org/fhir/StructureDefinition/data-absent-reason">
                  <valueCode value="unknown"></valueCode>
               </extension>
            </recordedDate>
         </Condition>
      </resource>
      <request>
         <method value="POST"></method>
         <url value="Condition"></url>
         <ifNoneExist value="identifier=http://www.imi-mimic.de/diags|null_10"></ifNoneExist>
      </request>
   </entry>
   <entry>
      <fullUrl value="urn:uuid:7ce5b469-ae35-4cb0-b655-bccb7adbcc6b"></fullUrl>
      <resource>
         <Condition xmlns="http://hl7.org/fhir">
            <meta>
               <profile value="https://www.medizininformatik-initiative.de/fhir/core/modul-diagnose/StructureDefinition/Diagnose"></profile>
            </meta>
            <identifier>
               <system value="http://www.imi-mimic.de/diags"></system>
               <value value="null_9"></value>
            </identifier>
            <subject>
               <reference value="10004401"></reference>
            </subject>
            <recordedDate>
               <extension url="http://hl7.org/fhir/StructureDefinition/data-absent-reason">
                  <valueCode value="unknown"></valueCode>
               </extension>
            </recordedDate>
         </Condition>
      </resource>
      <request>
         <method value="POST"></method>
         <url value="Condition"></url>
         <ifNoneExist value="identifier=http://www.imi-mimic.de/diags|null_9"></ifNoneExist>
      </request>
   </entry>
   <entry>
      <fullUrl value="urn:uuid:523bca95-145b-4b9a-834b-9dc288936375"></fullUrl>
      <resource>
         <Condition xmlns="http://hl7.org/fhir">
            <meta>
               <profile value="https://www.medizininformatik-initiative.de/fhir/core/modul-diagnose/StructureDefinition/Diagnose"></profile>
            </meta>
            <identifier>
               <system value="http://www.imi-mimic.de/diags"></system>
               <value value="null_8"></value>
            </identifier>
            <subject>
               <reference value="10004401"></reference>
            </subject>
            <recordedDate>
               <extension url="http://hl7.org/fhir/StructureDefinition/data-absent-reason">
                  <valueCode value="unknown"></valueCode>
               </extension>
            </recordedDate>
         </Condition>
      </resource>
      <request>
         <method value="POST"></method>
         <url value="Condition"></url>
         <ifNoneExist value="identifier=http://www.imi-mimic.de/diags|null_8"></ifNoneExist>
      </request>
   </entry>
   <entry>
      <fullUrl value="urn:uuid:fe273149-c4bc-4d92-884d-97b0b9b50346"></fullUrl>
      <resource>
         <Condition xmlns="http://hl7.org/fhir">
            <meta>
               <profile value="https://www.medizininformatik-initiative.de/fhir/core/modul-diagnose/StructureDefinition/Diagnose"></profile>
            </meta>
            <identifier>
               <system value="http://www.imi-mimic.de/diags"></system>
               <value value="null_7"></value>
            </identifier>
            <subject>
               <reference value="10004401"></reference>
            </subject>
            <recordedDate>
               <extension url="http://hl7.org/fhir/StructureDefinition/data-absent-reason">
                  <valueCode value="unknown"></valueCode>
               </extension>
            </recordedDate>
         </Condition>
      </resource>
      <request>
         <method value="POST"></method>
         <url value="Condition"></url>
         <ifNoneExist value="identifier=http://www.imi-mimic.de/diags|null_7"></ifNoneExist>
      </request>
   </entry>
   <entry>
      <fullUrl value="urn:uuid:ac957772-6839-4775-abf7-2e97bf6c05bb"></fullUrl>
      <resource>
         <Condition xmlns="http://hl7.org/fhir">
            <meta>
               <profile value="https://www.medizininformatik-initiative.de/fhir/core/modul-diagnose/StructureDefinition/Diagnose"></profile>
            </meta>
            <identifier>
               <system value="http://www.imi-mimic.de/diags"></system>
               <value value="null_6"></value>
            </identifier>
            <subject>
               <reference value="10004401"></reference>
            </subject>
            <recordedDate>
               <extension url="http://hl7.org/fhir/StructureDefinition/data-absent-reason">
                  <valueCode value="unknown"></valueCode>
               </extension>
            </recordedDate>
         </Condition>
      </resource>
      <request>
         <method value="POST"></method>
         <url value="Condition"></url>
         <ifNoneExist value="identifier=http://www.imi-mimic.de/diags|null_6"></ifNoneExist>
      </request>
   </entry>
   <entry>
      <fullUrl value="urn:uuid:f77cc97b-bb5a-44b2-9ae7-878a10fdadb7"></fullUrl>
      <resource>
         <Condition xmlns="http://hl7.org/fhir">
            <meta>
               <profile value="https://www.medizininformatik-initiative.de/fhir/core/modul-diagnose/StructureDefinition/Diagnose"></profile>
            </meta>
            <identifier>
               <system value="http://www.imi-mimic.de/diags"></system>
               <value value="null_5"></value>
            </identifier>
            <subject>
               <reference value="10004401"></reference>
            </subject>
            <recordedDate>
               <extension url="http://hl7.org/fhir/StructureDefinition/data-absent-reason">
                  <valueCode value="unknown"></valueCode>
               </extension>
            </recordedDate>
         </Condition>
      </resource>
      <request>
         <method value="POST"></method>
         <url value="Condition"></url>
         <ifNoneExist value="identifier=http://www.imi-mimic.de/diags|null_5"></ifNoneExist>
      </request>
   </entry>
   <entry>
      <fullUrl value="urn:uuid:56b0e559-0c9c-49f1-bcb1-c1a026861d52"></fullUrl>
      <resource>
         <Condition xmlns="http://hl7.org/fhir">
            <meta>
               <profile value="https://www.medizininformatik-initiative.de/fhir/core/modul-diagnose/StructureDefinition/Diagnose"></profile>
            </meta>
            <identifier>
               <system value="http://www.imi-mimic.de/diags"></system>
               <value value="null_4"></value>
            </identifier>
            <subject>
               <reference value="10004401"></reference>
            </subject>
            <recordedDate>
               <extension url="http://hl7.org/fhir/StructureDefinition/data-absent-reason">
                  <valueCode value="unknown"></valueCode>
               </extension>
            </recordedDate>
         </Condition>
      </resource>
      <request>
         <method value="POST"></method>
         <url value="Condition"></url>
         <ifNoneExist value="identifier=http://www.imi-mimic.de/diags|null_4"></ifNoneExist>
      </request>
   </entry>
   <entry>
      <fullUrl value="urn:uuid:863257f0-abc2-4938-bf58-f3260c6aa9ee"></fullUrl>
      <resource>
         <Condition xmlns="http://hl7.org/fhir">
            <meta>
               <profile value="https://www.medizininformatik-initiative.de/fhir/core/modul-diagnose/StructureDefinition/Diagnose"></profile>
            </meta>
            <identifier>
               <system value="http://www.imi-mimic.de/diags"></system>
               <value value="null_3"></value>
            </identifier>
            <subject>
               <reference value="10004401"></reference>
            </subject>
            <recordedDate>
               <extension url="http://hl7.org/fhir/StructureDefinition/data-absent-reason">
                  <valueCode value="unknown"></valueCode>
               </extension>
            </recordedDate>
         </Condition>
      </resource>
      <request>
         <method value="POST"></method>
         <url value="Condition"></url>
         <ifNoneExist value="identifier=http://www.imi-mimic.de/diags|null_3"></ifNoneExist>
      </request>
   </entry>
   <entry>
      <fullUrl value="urn:uuid:f256536a-bada-4947-be10-592248d6e5a8"></fullUrl>
      <resource>
         <Condition xmlns="http://hl7.org/fhir">
            <meta>
               <profile value="https://www.medizininformatik-initiative.de/fhir/core/modul-diagnose/StructureDefinition/Diagnose"></profile>
            </meta>
            <identifier>
               <system value="http://www.imi-mimic.de/diags"></system>
               <value value="null_2"></value>
            </identifier>
            <subject>
               <reference value="10004401"></reference>
            </subject>
            <recordedDate>
               <extension url="http://hl7.org/fhir/StructureDefinition/data-absent-reason">
                  <valueCode value="unknown"></valueCode>
               </extension>
            </recordedDate>
         </Condition>
      </resource>
      <request>
         <method value="POST"></method>
         <url value="Condition"></url>
         <ifNoneExist value="identifier=http://www.imi-mimic.de/diags|null_2"></ifNoneExist>
      </request>
   </entry>
   <entry>
      <fullUrl value="urn:uuid:9575be8b-f6dc-42a8-b530-444a20f7b4a4"></fullUrl>
      <resource>
         <Condition xmlns="http://hl7.org/fhir">
            <meta>
               <profile value="https://www.medizininformatik-initiative.de/fhir/core/modul-diagnose/StructureDefinition/Diagnose"></profile>
            </meta>
            <identifier>
               <system value="http://www.imi-mimic.de/diags"></system>
               <value value="null_1"></value>
            </identifier>
            <subject>
               <reference value="10004401"></reference>
            </subject>
            <recordedDate>
               <extension url="http://hl7.org/fhir/StructureDefinition/data-absent-reason">
                  <valueCode value="unknown"></valueCode>
               </extension>
            </recordedDate>
         </Condition>
      </resource>
      <request>
         <method value="POST"></method>
         <url value="Condition"></url>
         <ifNoneExist value="identifier=http://www.imi-mimic.de/diags|null_1"></ifNoneExist>
      </request>
   </entry>
   <entry>
      <fullUrl value="urn:uuid:ef543dec-f826-4f7a-81f9-69a0bf143fa1"></fullUrl>
      <resource>
         <Procedure xmlns="http://hl7.org/fhir">
            <meta>
               <profile value="https://www.medizininformatik-initiative.de/fhir/core/modul-prozedur/StructureDefinition/Procedure"></profile>
            </meta>
            <identifier>
               <system value="http://www.imi-mimic.de/procs"></system>
               <value value="25753439_1"></value>
            </identifier>
            <status value="completed"></status>
            <subject>
               <reference value="10004401"></reference>
            </subject>
            <encounter>
               <reference value="25753439"></reference>
            </encounter>
         </Procedure>
      </resource>
      <request>
         <method value="POST"></method>
         <url value="Procedure"></url>
         <ifNoneExist value="identifier=http://www.imi-mimic.de/procs|25753439_1"></ifNoneExist>
      </request>
   </entry>
   <entry>
      <fullUrl value="urn:uuid:eeab682b-a852-418a-961e-449455605871"></fullUrl>
      <resource>
         <Location xmlns="http://hl7.org/fhir">
            <identifier>
               <system value="http://www.imi-mimic.de/location/Medicine"></system>
               <value value="Medicine"></value>
            </identifier>
            <name value="Medicine"></name>
            <type>
               <coding>
                  <system value="http://terminology.hl7.org/ValueSet/v3-ServiceDeliveryLocationRoleType"></system>
                  <code value="_ServiceDeliveryLocationRoleType"></code>
                  <display value="ServiceDeliveryLocationRoleType"></display>
               </coding>
            </type>
            <physicalType>
               <coding>
                  <system value="http://terminology.hl7.org/CodeSystem/location-physical-type"></system>
                  <code value="wa"></code>
                  <display value="Ward"></display>
               </coding>
            </physicalType>
            <managingOrganization>
               <reference value="urn:uuid:5c4eecc9-1c0d-4e2f-95a6-fcb76522417a"></reference>
            </managingOrganization>
         </Location>
      </resource>
      <request>
         <method value="POST"></method>
         <url value="Location"></url>
         <ifNoneExist value="identifier=http://www.imi-mimic.de/location/Medicine|Medicine"></ifNoneExist>
      </request>
   </entry>
   <entry>
      <fullUrl value="urn:uuid:431a7eb3-a650-429b-8f96-c018f4b46840"></fullUrl>
      <resource>
         <Encounter xmlns="http://hl7.org/fhir">
            <status value="finished"></status>
            <class>
               <system value="https://www.medizininformatik-initiative.de/fhir/core/CodeSystem/EncounterClassAdditionsDE"></system>
               <code value="_ActEncounterCode"></code>
               <display value="ActEncounterCode"></display>
            </class>
            <period>
               <start value="2142-08-28T00:00:00+00:00"></start>
               <end value="2142-08-29T00:00:00+00:00"></end>
            </period>
            <location>
               <location>
                  <reference value="urn:uuid:eeab682b-a852-418a-961e-449455605871"></reference>
               </location>
               <status value="completed"></status>
               <physicalType>
                  <coding>
                     <system value="http://terminology.hl7.org/CodeSystem/location-physical-type"></system>
                     <code value="wa"></code>
                     <display value="Ward"></display>
                  </coding>
               </physicalType>
               <period>
                  <start value="2142-08-28T00:00:00+00:00"></start>
                  <end value="2142-08-29T00:00:00+00:00"></end>
               </period>
            </location>
            <serviceProvider>
               <reference value="urn:uuid:5c4eecc9-1c0d-4e2f-95a6-fcb76522417a"></reference>
            </serviceProvider>
            <partOf>
               <reference value="urn:uuid:beb49716-77e9-43b3-8bf1-5b623c2fb8ad"></reference>
            </partOf>
         </Encounter>
      </resource>
      <request>
         <method value="POST"></method>
         <url value="Encounter"></url>
         <ifNoneExist value="identifier=null|null"></ifNoneExist>
      </request>
   </entry>
   <entry>
      <fullUrl value="urn:uuid:4338d3a9-d48a-46dd-bfd8-6fd8722080b0"></fullUrl>
      <resource>
         <Location xmlns="http://hl7.org/fhir">
            <identifier>
               <system value="http://www.imi-mimic.de/location/Unknown"></system>
               <value value="Unknown"></value>
            </identifier>
            <name value="Unknown"></name>
            <type>
               <coding>
                  <system value="http://terminology.hl7.org/ValueSet/v3-ServiceDeliveryLocationRoleType"></system>
                  <code value="_ServiceDeliveryLocationRoleType"></code>
                  <display value="ServiceDeliveryLocationRoleType"></display>
               </coding>
            </type>
            <physicalType>
               <coding>
                  <system value="http://terminology.hl7.org/CodeSystem/location-physical-type"></system>
                  <code value="wa"></code>
                  <display value="Ward"></display>
               </coding>
            </physicalType>
            <managingOrganization>
               <reference value="urn:uuid:36ad2032-0307-431e-be03-410e49e859e4"></reference>
            </managingOrganization>
         </Location>
      </resource>
      <request>
         <method value="POST"></method>
         <url value="Location"></url>
         <ifNoneExist value="identifier=http://www.imi-mimic.de/location/Unknown|Unknown"></ifNoneExist>
      </request>
   </entry>
   <entry>
      <fullUrl value="urn:uuid:fc8506f9-e7b6-41ca-b9f2-d32deafb1618"></fullUrl>
      <resource>
         <Encounter xmlns="http://hl7.org/fhir">
            <status value="finished"></status>
            <class>
               <system value="https://www.medizininformatik-initiative.de/fhir/core/CodeSystem/EncounterClassAdditionsDE"></system>
               <code value="_ActEncounterCode"></code>
               <display value="ActEncounterCode"></display>
            </class>
            <period>
               <start value="2142-08-29T00:00:00+00:00"></start>
            </period>
            <location>
               <location>
                  <reference value="urn:uuid:4338d3a9-d48a-46dd-bfd8-6fd8722080b0"></reference>
               </location>
               <status value="completed"></status>
               <physicalType>
                  <coding>
                     <system value="http://terminology.hl7.org/CodeSystem/location-physical-type"></system>
                     <code value="wa"></code>
                     <display value="Ward"></display>
                  </coding>
               </physicalType>
               <period>
                  <start value="2142-08-29T00:00:00+00:00"></start>
               </period>
            </location>
            <serviceProvider>
               <reference value="urn:uuid:36ad2032-0307-431e-be03-410e49e859e4"></reference>
            </serviceProvider>
            <partOf>
               <reference value="urn:uuid:beb49716-77e9-43b3-8bf1-5b623c2fb8ad"></reference>
            </partOf>
         </Encounter>
      </resource>
      <request>
         <method value="POST"></method>
         <url value="Encounter"></url>
         <ifNoneExist value="identifier=null|null"></ifNoneExist>
      </request>
   </entry>
   <entry>
      <fullUrl value="urn:uuid:02cc4162-33a3-4ed3-848f-0ebb7ab06076"></fullUrl>
      <resource>
         <Location xmlns="http://hl7.org/fhir">
            <identifier>
               <system value="http://www.imi-mimic.de/location/Emergency_Department"></system>
               <value value="Emergency Department"></value>
            </identifier>
            <name value="Emergency Department"></name>
            <type>
               <coding>
                  <system value="http://terminology.hl7.org/ValueSet/v3-ServiceDeliveryLocationRoleType"></system>
                  <code value="_ServiceDeliveryLocationRoleType"></code>
                  <display value="ServiceDeliveryLocationRoleType"></display>
               </coding>
            </type>
            <physicalType>
               <coding>
                  <system value="http://terminology.hl7.org/CodeSystem/location-physical-type"></system>
                  <code value="wa"></code>
                  <display value="Ward"></display>
               </coding>
            </physicalType>
            <managingOrganization>
               <reference value="urn:uuid:3e5cb101-0673-4bb5-85dd-9e4192001f7c"></reference>
            </managingOrganization>
         </Location>
      </resource>
      <request>
         <method value="POST"></method>
         <url value="Location"></url>
         <ifNoneExist value="identifier=http://www.imi-mimic.de/location/Emergency_Department|Emergency Department"></ifNoneExist>
      </request>
   </entry>
   <entry>
      <fullUrl value="urn:uuid:b094497e-e673-4c54-b1a6-4c37522d2d7f"></fullUrl>
      <resource>
         <Encounter xmlns="http://hl7.org/fhir">
            <status value="finished"></status>
            <class>
               <system value="https://www.medizininformatik-initiative.de/fhir/core/CodeSystem/EncounterClassAdditionsDE"></system>
               <code value="_ActEncounterCode"></code>
               <display value="ActEncounterCode"></display>
            </class>
            <period>
               <start value="2142-08-27T00:00:00+00:00"></start>
               <end value="2142-08-27T00:00:00+00:00"></end>
            </period>
            <location>
               <location>
                  <reference value="urn:uuid:02cc4162-33a3-4ed3-848f-0ebb7ab06076"></reference>
               </location>
               <status value="completed"></status>
               <physicalType>
                  <coding>
                     <system value="http://terminology.hl7.org/CodeSystem/location-physical-type"></system>
                     <code value="wa"></code>
                     <display value="Ward"></display>
                  </coding>
               </physicalType>
               <period>
                  <start value="2142-08-27T00:00:00+00:00"></start>
                  <end value="2142-08-27T00:00:00+00:00"></end>
               </period>
            </location>
            <serviceProvider>
               <reference value="urn:uuid:3e5cb101-0673-4bb5-85dd-9e4192001f7c"></reference>
            </serviceProvider>
            <partOf>
               <reference value="urn:uuid:beb49716-77e9-43b3-8bf1-5b623c2fb8ad"></reference>
            </partOf>
         </Encounter>
      </resource>
      <request>
         <method value="POST"></method>
         <url value="Encounter"></url>
         <ifNoneExist value="identifier=null|null"></ifNoneExist>
      </request>
   </entry>
   <entry>
      <fullUrl value="urn:uuid:beb49716-77e9-43b3-8bf1-5b623c2fb8ad"></fullUrl>
      <resource>
         <Encounter xmlns="http://hl7.org/fhir">
            <meta>
               <profile value="https://www.umontreal.ca/fhir/core/modul-fall/StructureDefinition/KontaktGesundheitseinrichtung"></profile>
            </meta>
            <identifier>
               <type>
                  <coding>
                     <system value="http://terminology.hl7.org/CodeSystem/v2-0203"></system>
                     <code value="VN"></code>
                  </coding>
               </type>
               <system value="http://www.umontreal.ca/encs"></system>
               <value value="25753439"></value>
            </identifier>
            <status value="finished"></status>
            <class>
               <system value="https://www.umontreal.ca/fhir/core/ValueSet/EncounterClassDE"></system>
               <code value="E"></code>
               <display value="Notfall"></display>
            </class>
            <period>
               <start value="2142-08-27T00:00:00+00:00"></start>
               <end value="2142-08-29T00:00:00+00:00"></end>
            </period>
            <diagnosis>
               <condition>
                  <reference value="urn:uuid:686f6ec7-e259-4cd4-a372-7a973ce22ae4"></reference>
               </condition>
               <rank value="15"></rank>
            </diagnosis>
            <diagnosis>
               <condition>
                  <reference value="urn:uuid:d07dafca-e720-4bd2-abe2-0b9bb47840ae"></reference>
               </condition>
               <rank value="14"></rank>
            </diagnosis>
            <diagnosis>
               <condition>
                  <reference value="urn:uuid:96ba34ec-6522-433f-8e08-1328b6b76b71"></reference>
               </condition>
               <rank value="13"></rank>
            </diagnosis>
            <diagnosis>
               <condition>
                  <reference value="urn:uuid:ec6ab126-0d48-4e0c-bbb4-a36602969507"></reference>
               </condition>
               <rank value="12"></rank>
            </diagnosis>
            <diagnosis>
               <condition>
                  <reference value="urn:uuid:6837b472-c960-45b2-9ccb-052b4e0f5a5c"></reference>
               </condition>
               <rank value="11"></rank>
            </diagnosis>
            <diagnosis>
               <condition>
                  <reference value="urn:uuid:ebdda8c3-776b-4862-9ecf-d089a0eda84b"></reference>
               </condition>
               <rank value="10"></rank>
            </diagnosis>
            <diagnosis>
               <condition>
                  <reference value="urn:uuid:7ce5b469-ae35-4cb0-b655-bccb7adbcc6b"></reference>
               </condition>
               <rank value="9"></rank>
            </diagnosis>
            <diagnosis>
               <condition>
                  <reference value="urn:uuid:523bca95-145b-4b9a-834b-9dc288936375"></reference>
               </condition>
               <rank value="8"></rank>
            </diagnosis>
            <diagnosis>
               <condition>
                  <reference value="urn:uuid:fe273149-c4bc-4d92-884d-97b0b9b50346"></reference>
               </condition>
               <rank value="7"></rank>
            </diagnosis>
            <diagnosis>
               <condition>
                  <reference value="urn:uuid:ac957772-6839-4775-abf7-2e97bf6c05bb"></reference>
               </condition>
               <rank value="6"></rank>
            </diagnosis>
            <diagnosis>
               <condition>
                  <reference value="urn:uuid:f77cc97b-bb5a-44b2-9ae7-878a10fdadb7"></reference>
               </condition>
               <rank value="5"></rank>
            </diagnosis>
            <diagnosis>
               <condition>
                  <reference value="urn:uuid:56b0e559-0c9c-49f1-bcb1-c1a026861d52"></reference>
               </condition>
               <rank value="4"></rank>
            </diagnosis>
            <diagnosis>
               <condition>
                  <reference value="urn:uuid:863257f0-abc2-4938-bf58-f3260c6aa9ee"></reference>
               </condition>
               <rank value="3"></rank>
            </diagnosis>
            <diagnosis>
               <condition>
                  <reference value="urn:uuid:f256536a-bada-4947-be10-592248d6e5a8"></reference>
               </condition>
               <rank value="2"></rank>
            </diagnosis>
            <diagnosis>
               <condition>
                  <reference value="urn:uuid:9575be8b-f6dc-42a8-b530-444a20f7b4a4"></reference>
               </condition>
               <rank value="1"></rank>
            </diagnosis>
            <diagnosis>
               <condition>
                  <reference value="urn:uuid:ef543dec-f826-4f7a-81f9-69a0bf143fa1"></reference>
               </condition>
               <rank value="1"></rank>
            </diagnosis>
            <hospitalization>
               <dischargeDisposition>
                  <coding>
                     <system value="https://www.medizininformatik-initiative.de/fhir/core/modul-fall/CodeSystem/Entlassungsgrund"></system>
                     <code value="019"></code>
                     <display value="Behandlung regulaer beendet, keine Angabe"></display>
                  </coding>
               </dischargeDisposition>
            </hospitalization>
         </Encounter>
      </resource>
      <request>
         <method value="POST"></method>
         <url value="Encounter"></url>
         <ifNoneExist value="identifier=http://www.umontreal.ca/encs|25753439"></ifNoneExist>
      </request>
   </entry>
   <entry>
      <fullUrl value="urn:uuid:d283419e-c677-40a3-8c3e-3f8b68d8c4b8"></fullUrl>
      <resource>
         <Medication xmlns="http://hl7.org/fhir">
            <text>
               <status value="generated"></status>
            </text>
         </Medication>
      </resource>
      <request>
         <method value="POST"></method>
         <url value="Medication"></url>
         <ifNoneExist value="code=null"></ifNoneExist>
      </request>
   </entry>
   <entry>
      <resource>
         <MedicationAdministration xmlns="http://hl7.org/fhir">
            <meta>
               <profile value="https://www.medizininformatik-initiative.de/fhir/core/modul-medikation/StructureDefinition/MedicationAdministration"></profile>
            </meta>
            <identifier>
               <system value="http://umontreal.ca/prescriptions"></system>
               <value value="25753439_0"></value>
            </identifier>
            <status value="completed"></status>
            <medicationReference>
               <reference value="urn:uuid:d283419e-c677-40a3-8c3e-3f8b68d8c4b8"></reference>
            </medicationReference>
            <subject>
               <reference value="10004401"></reference>
            </subject>
            <context>
               <reference value="25753439"></reference>
            </context>
            <effectivePeriod>
               <start value="2142-08-28T00:00:00+00:00"></start>
               <end value="2142-08-29T00:00:00+00:00"></end>
            </effectivePeriod>
         </MedicationAdministration>
      </resource>
      <request>
         <method value="POST"></method>
         <url value="MedicationAdministration"></url>
      </request>
   </entry>
   <entry>
      <resource>
         <MedicationAdministration xmlns="http://hl7.org/fhir">
            <meta>
               <profile value="https://www.medizininformatik-initiative.de/fhir/core/modul-medikation/StructureDefinition/MedicationAdministration"></profile>
            </meta>
            <identifier>
               <system value="http://umontreal.ca/prescriptions"></system>
               <value value="25753439_1"></value>
            </identifier>
            <status value="completed"></status>
            <medicationReference>
               <reference value="urn:uuid:d283419e-c677-40a3-8c3e-3f8b68d8c4b8"></reference>
            </medicationReference>
            <subject>
               <reference value="10004401"></reference>
            </subject>
            <context>
               <reference value="25753439"></reference>
            </context>
            <effectivePeriod>
               <start value="2142-08-28T00:00:00+00:00"></start>
               <end value="2142-08-29T00:00:00+00:00"></end>
            </effectivePeriod>
         </MedicationAdministration>
      </resource>
      <request>
         <method value="POST"></method>
         <url value="MedicationAdministration"></url>
      </request>
   </entry>
   <entry>
      <resource>
         <MedicationAdministration xmlns="http://hl7.org/fhir">
            <meta>
               <profile value="https://www.medizininformatik-initiative.de/fhir/core/modul-medikation/StructureDefinition/MedicationAdministration"></profile>
            </meta>
            <identifier>
               <system value="http://umontreal.ca/prescriptions"></system>
               <value value="25753439_2"></value>
            </identifier>
            <status value="completed"></status>
            <medicationReference>
               <reference value="urn:uuid:d283419e-c677-40a3-8c3e-3f8b68d8c4b8"></reference>
            </medicationReference>
            <subject>
               <reference value="10004401"></reference>
            </subject>
            <context>
               <reference value="25753439"></reference>
            </context>
            <effectivePeriod>
               <start value="2142-08-28T00:00:00+00:00"></start>
               <end value="2142-08-29T00:00:00+00:00"></end>
            </effectivePeriod>
         </MedicationAdministration>
      </resource>
      <request>
         <method value="POST"></method>
         <url value="MedicationAdministration"></url>
      </request>
   </entry>
   <entry>
      <resource>
         <MedicationAdministration xmlns="http://hl7.org/fhir">
            <meta>
               <profile value="https://www.medizininformatik-initiative.de/fhir/core/modul-medikation/StructureDefinition/MedicationAdministration"></profile>
            </meta>
            <identifier>
               <system value="http://umontreal.ca/prescriptions"></system>
               <value value="25753439_3"></value>
            </identifier>
            <status value="completed"></status>
            <medicationReference>
               <reference value="urn:uuid:d283419e-c677-40a3-8c3e-3f8b68d8c4b8"></reference>
            </medicationReference>
            <subject>
               <reference value="10004401"></reference>
            </subject>
            <context>
               <reference value="25753439"></reference>
            </context>
            <effectivePeriod>
               <start value="2142-08-28T00:00:00+00:00"></start>
               <end value="2142-08-29T00:00:00+00:00"></end>
            </effectivePeriod>
         </MedicationAdministration>
      </resource>
      <request>
         <method value="POST"></method>
         <url value="MedicationAdministration"></url>
      </request>
   </entry>
   <entry>
      <resource>
         <MedicationAdministration xmlns="http://hl7.org/fhir">
            <meta>
               <profile value="https://www.medizininformatik-initiative.de/fhir/core/modul-medikation/StructureDefinition/MedicationAdministration"></profile>
            </meta>
            <identifier>
               <system value="http://umontreal.ca/prescriptions"></system>
               <value value="25753439_4"></value>
            </identifier>
            <status value="completed"></status>
            <medicationReference>
               <reference value="urn:uuid:d283419e-c677-40a3-8c3e-3f8b68d8c4b8"></reference>
            </medicationReference>
            <subject>
               <reference value="10004401"></reference>
            </subject>
            <context>
               <reference value="25753439"></reference>
            </context>
            <effectivePeriod>
               <start value="2142-08-28T00:00:00+00:00"></start>
               <end value="2142-08-29T00:00:00+00:00"></end>
            </effectivePeriod>
         </MedicationAdministration>
      </resource>
      <request>
         <method value="POST"></method>
         <url value="MedicationAdministration"></url>
      </request>
   </entry>
   <entry>
      <resource>
         <MedicationAdministration xmlns="http://hl7.org/fhir">
            <meta>
               <profile value="https://www.medizininformatik-initiative.de/fhir/core/modul-medikation/StructureDefinition/MedicationAdministration"></profile>
            </meta>
            <identifier>
               <system value="http://umontreal.ca/prescriptions"></system>
               <value value="25753439_5"></value>
            </identifier>
            <status value="completed"></status>
            <medicationReference>
               <reference value="urn:uuid:d283419e-c677-40a3-8c3e-3f8b68d8c4b8"></reference>
            </medicationReference>
            <subject>
               <reference value="10004401"></reference>
            </subject>
            <context>
               <reference value="25753439"></reference>
            </context>
            <effectivePeriod>
               <start value="2142-08-28T00:00:00+00:00"></start>
               <end value="2142-08-29T00:00:00+00:00"></end>
            </effectivePeriod>
         </MedicationAdministration>
      </resource>
      <request>
         <method value="POST"></method>
         <url value="MedicationAdministration"></url>
      </request>
   </entry>
   <entry>
      <resource>
         <MedicationAdministration xmlns="http://hl7.org/fhir">
            <meta>
               <profile value="https://www.medizininformatik-initiative.de/fhir/core/modul-medikation/StructureDefinition/MedicationAdministration"></profile>
            </meta>
            <identifier>
               <system value="http://umontreal.ca/prescriptions"></system>
               <value value="25753439_6"></value>
            </identifier>
            <status value="completed"></status>
            <medicationReference>
               <reference value="urn:uuid:d283419e-c677-40a3-8c3e-3f8b68d8c4b8"></reference>
            </medicationReference>
            <subject>
               <reference value="10004401"></reference>
            </subject>
            <context>
               <reference value="25753439"></reference>
            </context>
            <effectivePeriod>
               <start value="2142-08-29T00:00:00+00:00"></start>
               <end value="2142-08-29T00:00:00+00:00"></end>
            </effectivePeriod>
         </MedicationAdministration>
      </resource>
      <request>
         <method value="POST"></method>
         <url value="MedicationAdministration"></url>
      </request>
   </entry>
   <entry>
      <resource>
         <MedicationAdministration xmlns="http://hl7.org/fhir">
            <meta>
               <profile value="https://www.medizininformatik-initiative.de/fhir/core/modul-medikation/StructureDefinition/MedicationAdministration"></profile>
            </meta>
            <identifier>
               <system value="http://umontreal.ca/prescriptions"></system>
               <value value="25753439_7"></value>
            </identifier>
            <status value="completed"></status>
            <medicationReference>
               <reference value="urn:uuid:d283419e-c677-40a3-8c3e-3f8b68d8c4b8"></reference>
            </medicationReference>
            <subject>
               <reference value="10004401"></reference>
            </subject>
            <context>
               <reference value="25753439"></reference>
            </context>
            <effectivePeriod>
               <start value="2142-08-28T00:00:00+00:00"></start>
               <end value="2142-08-29T00:00:00+00:00"></end>
            </effectivePeriod>
         </MedicationAdministration>
      </resource>
      <request>
         <method value="POST"></method>
         <url value="MedicationAdministration"></url>
      </request>
   </entry>
   <entry>
      <resource>
         <MedicationAdministration xmlns="http://hl7.org/fhir">
            <meta>
               <profile value="https://www.medizininformatik-initiative.de/fhir/core/modul-medikation/StructureDefinition/MedicationAdministration"></profile>
            </meta>
            <identifier>
               <system value="http://umontreal.ca/prescriptions"></system>
               <value value="25753439_8"></value>
            </identifier>
            <status value="completed"></status>
            <medicationReference>
               <reference value="urn:uuid:d283419e-c677-40a3-8c3e-3f8b68d8c4b8"></reference>
            </medicationReference>
            <subject>
               <reference value="10004401"></reference>
            </subject>
            <context>
               <reference value="25753439"></reference>
            </context>
            <effectivePeriod>
               <start value="2142-08-28T00:00:00+00:00"></start>
               <end value="2142-08-29T00:00:00+00:00"></end>
            </effectivePeriod>
         </MedicationAdministration>
      </resource>
      <request>
         <method value="POST"></method>
         <url value="MedicationAdministration"></url>
      </request>
   </entry>
   <entry>
      <resource>
         <MedicationAdministration xmlns="http://hl7.org/fhir">
            <meta>
               <profile value="https://www.medizininformatik-initiative.de/fhir/core/modul-medikation/StructureDefinition/MedicationAdministration"></profile>
            </meta>
            <identifier>
               <system value="http://umontreal.ca/prescriptions"></system>
               <value value="25753439_9"></value>
            </identifier>
            <status value="completed"></status>
            <medicationReference>
               <reference value="urn:uuid:d283419e-c677-40a3-8c3e-3f8b68d8c4b8"></reference>
            </medicationReference>
            <subject>
               <reference value="10004401"></reference>
            </subject>
            <context>
               <reference value="25753439"></reference>
            </context>
            <effectivePeriod>
               <start value="2142-08-28T00:00:00+00:00"></start>
               <end value="2142-08-29T00:00:00+00:00"></end>
            </effectivePeriod>
         </MedicationAdministration>
      </resource>
      <request>
         <method value="POST"></method>
         <url value="MedicationAdministration"></url>
      </request>
   </entry>
   <entry>
      <resource>
         <Observation xmlns="http://hl7.org/fhir">
            <meta>
               <profile value="https://www.umontreal.ca/fhir/core/modul-labor/StructureDefinition/ObservationLab"></profile>
            </meta>
            <identifier>
               <use value="usual"></use>
               <type>
                  <coding>
                     <system value="http://terminology.hl7.org/CodeSystem/v2-0203"></system>
                     <code value="OBI"></code>
                     <display value="Optometrist license number"></display>
                  </coding>
               </type>
               <system value="http://www.umontreal.ca/labevents"></system>
               <value value="60266"></value>
               <assigner>
                  <reference value="10004401"></reference>
               </assigner>
            </identifier>
            <partOf>
               <reference value="25753439"></reference>
            </partOf>
            <status value="final"></status>
            <code>
               <text value="Hematocrit"></text>
            </code>
            <subject>
               <reference value="10004401"></reference>
            </subject>
            <effectiveDateTime value="2142-08-28T00:00:00+00:00"></effectiveDateTime>
            <valueQuantity>
               <value value="27.5"></value>
               <unit value="%"></unit>
            </valueQuantity>
         </Observation>
      </resource>
      <request>
         <method value="POST"></method>
         <url value="Observation"></url>
      </request>
   </entry>
   <entry>
      <resource>
         <Observation xmlns="http://hl7.org/fhir">
            <meta>
               <profile value="https://www.umontreal.ca/fhir/core/modul-labor/StructureDefinition/ObservationLab"></profile>
            </meta>
            <identifier>
               <use value="usual"></use>
               <type>
                  <coding>
                     <system value="http://terminology.hl7.org/CodeSystem/v2-0203"></system>
                     <code value="OBI"></code>
                     <display value="Optometrist license number"></display>
                  </coding>
               </type>
               <system value="http://www.umontreal.ca/labevents"></system>
               <value value="60267"></value>
               <assigner>
                  <reference value="10004401"></reference>
               </assigner>
            </identifier>
            <partOf>
               <reference value="25753439"></reference>
            </partOf>
            <status value="final"></status>
            <code>
               <text value="Anion Gap"></text>
            </code>
            <subject>
               <reference value="10004401"></reference>
            </subject>
            <effectiveDateTime value="2142-08-28T00:00:00+00:00"></effectiveDateTime>
            <valueQuantity>
               <value value="14.0"></value>
               <unit value="mEq/L"></unit>
            </valueQuantity>
         </Observation>
      </resource>
      <request>
         <method value="POST"></method>
         <url value="Observation"></url>
      </request>
   </entry>
   <entry>
      <resource>
         <Observation xmlns="http://hl7.org/fhir">
            <meta>
               <profile value="https://www.umontreal.ca/fhir/core/modul-labor/StructureDefinition/ObservationLab"></profile>
            </meta>
            <identifier>
               <use value="usual"></use>
               <type>
                  <coding>
                     <system value="http://terminology.hl7.org/CodeSystem/v2-0203"></system>
                     <code value="OBI"></code>
                     <display value="Optometrist license number"></display>
                  </coding>
               </type>
               <system value="http://www.umontreal.ca/labevents"></system>
               <value value="60268"></value>
               <assigner>
                  <reference value="10004401"></reference>
               </assigner>
            </identifier>
            <partOf>
               <reference value="25753439"></reference>
            </partOf>
            <status value="final"></status>
            <code>
               <text value="Bicarbonate"></text>
            </code>
            <subject>
               <reference value="10004401"></reference>
            </subject>
            <effectiveDateTime value="2142-08-28T00:00:00+00:00"></effectiveDateTime>
            <valueQuantity>
               <value value="22.0"></value>
               <unit value="mEq/L"></unit>
            </valueQuantity>
         </Observation>
      </resource>
      <request>
         <method value="POST"></method>
         <url value="Observation"></url>
      </request>
   </entry>
   <entry>
      <resource>
         <Observation xmlns="http://hl7.org/fhir">
            <meta>
               <profile value="https://www.umontreal.ca/fhir/core/modul-labor/StructureDefinition/ObservationLab"></profile>
            </meta>
            <identifier>
               <use value="usual"></use>
               <type>
                  <coding>
                     <system value="http://terminology.hl7.org/CodeSystem/v2-0203"></system>
                     <code value="OBI"></code>
                     <display value="Optometrist license number"></display>
                  </coding>
               </type>
               <system value="http://www.umontreal.ca/labevents"></system>
               <value value="60269"></value>
               <assigner>
                  <reference value="10004401"></reference>
               </assigner>
            </identifier>
            <partOf>
               <reference value="25753439"></reference>
            </partOf>
            <status value="final"></status>
            <code>
               <text value="Calcium, Total"></text>
            </code>
            <subject>
               <reference value="10004401"></reference>
            </subject>
            <effectiveDateTime value="2142-08-28T00:00:00+00:00"></effectiveDateTime>
            <valueQuantity>
               <value value="8.4"></value>
               <unit value="mg/dL"></unit>
            </valueQuantity>
         </Observation>
      </resource>
      <request>
         <method value="POST"></method>
         <url value="Observation"></url>
      </request>
   </entry>
   <entry>
      <resource>
         <Observation xmlns="http://hl7.org/fhir">
            <meta>
               <profile value="https://www.umontreal.ca/fhir/core/modul-labor/StructureDefinition/ObservationLab"></profile>
            </meta>
            <identifier>
               <use value="usual"></use>
               <type>
                  <coding>
                     <system value="http://terminology.hl7.org/CodeSystem/v2-0203"></system>
                     <code value="OBI"></code>
                     <display value="Optometrist license number"></display>
                  </coding>
               </type>
               <system value="http://www.umontreal.ca/labevents"></system>
               <value value="60270"></value>
               <assigner>
                  <reference value="10004401"></reference>
               </assigner>
            </identifier>
            <partOf>
               <reference value="25753439"></reference>
            </partOf>
            <status value="final"></status>
            <code>
               <text value="Chloride"></text>
            </code>
            <subject>
               <reference value="10004401"></reference>
            </subject>
            <effectiveDateTime value="2142-08-28T00:00:00+00:00"></effectiveDateTime>
            <valueQuantity>
               <value value="103.0"></value>
               <unit value="mEq/L"></unit>
            </valueQuantity>
         </Observation>
      </resource>
      <request>
         <method value="POST"></method>
         <url value="Observation"></url>
      </request>
   </entry>
   <entry>
      <resource>
         <Observation xmlns="http://hl7.org/fhir">
            <meta>
               <profile value="https://www.umontreal.ca/fhir/core/modul-labor/StructureDefinition/ObservationLab"></profile>
            </meta>
            <identifier>
               <use value="usual"></use>
               <type>
                  <coding>
                     <system value="http://terminology.hl7.org/CodeSystem/v2-0203"></system>
                     <code value="OBI"></code>
                     <display value="Optometrist license number"></display>
                  </coding>
               </type>
               <system value="http://www.umontreal.ca/labevents"></system>
               <value value="60271"></value>
               <assigner>
                  <reference value="10004401"></reference>
               </assigner>
            </identifier>
            <partOf>
               <reference value="25753439"></reference>
            </partOf>
            <status value="final"></status>
            <code>
               <text value="Creatinine"></text>
            </code>
            <subject>
               <reference value="10004401"></reference>
            </subject>
            <effectiveDateTime value="2142-08-28T00:00:00+00:00"></effectiveDateTime>
            <valueQuantity>
               <value value="1.2"></value>
               <unit value="mg/dL"></unit>
            </valueQuantity>
         </Observation>
      </resource>
      <request>
         <method value="POST"></method>
         <url value="Observation"></url>
      </request>
   </entry>
   <entry>
      <resource>
         <Observation xmlns="http://hl7.org/fhir">
            <meta>
               <profile value="https://www.umontreal.ca/fhir/core/modul-labor/StructureDefinition/ObservationLab"></profile>
            </meta>
            <identifier>
               <use value="usual"></use>
               <type>
                  <coding>
                     <system value="http://terminology.hl7.org/CodeSystem/v2-0203"></system>
                     <code value="OBI"></code>
                     <display value="Optometrist license number"></display>
                  </coding>
               </type>
               <system value="http://www.umontreal.ca/labevents"></system>
               <value value="60272"></value>
               <assigner>
                  <reference value="10004401"></reference>
               </assigner>
            </identifier>
            <partOf>
               <reference value="25753439"></reference>
            </partOf>
            <status value="final"></status>
            <code>
               <text value="Glucose"></text>
            </code>
            <subject>
               <reference value="10004401"></reference>
            </subject>
            <effectiveDateTime value="2142-08-28T00:00:00+00:00"></effectiveDateTime>
            <valueQuantity>
               <value value="116.0"></value>
               <unit value="mg/dL"></unit>
            </valueQuantity>
            <note>
               <text value="IF FASTING, 70-100 NORMAL, &gt;125 PROVISIONAL DIABETES."></text>
            </note>
         </Observation>
      </resource>
      <request>
         <method value="POST"></method>
         <url value="Observation"></url>
      </request>
   </entry>
   <entry>
      <resource>
         <Observation xmlns="http://hl7.org/fhir">
            <meta>
               <profile value="https://www.umontreal.ca/fhir/core/modul-labor/StructureDefinition/ObservationLab"></profile>
            </meta>
            <identifier>
               <use value="usual"></use>
               <type>
                  <coding>
                     <system value="http://terminology.hl7.org/CodeSystem/v2-0203"></system>
                     <code value="OBI"></code>
                     <display value="Optometrist license number"></display>
                  </coding>
               </type>
               <system value="http://www.umontreal.ca/labevents"></system>
               <value value="60273"></value>
               <assigner>
                  <reference value="10004401"></reference>
               </assigner>
            </identifier>
            <partOf>
               <reference value="25753439"></reference>
            </partOf>
            <status value="final"></status>
            <code>
               <text value="Magnesium"></text>
            </code>
            <subject>
               <reference value="10004401"></reference>
            </subject>
            <effectiveDateTime value="2142-08-28T00:00:00+00:00"></effectiveDateTime>
            <valueQuantity>
               <value value="2.4"></value>
               <unit value="mg/dL"></unit>
            </valueQuantity>
         </Observation>
      </resource>
      <request>
         <method value="POST"></method>
         <url value="Observation"></url>
      </request>
   </entry>
   <entry>
      <resource>
         <Observation xmlns="http://hl7.org/fhir">
            <meta>
               <profile value="https://www.umontreal.ca/fhir/core/modul-labor/StructureDefinition/ObservationLab"></profile>
            </meta>
            <identifier>
               <use value="usual"></use>
               <type>
                  <coding>
                     <system value="http://terminology.hl7.org/CodeSystem/v2-0203"></system>
                     <code value="OBI"></code>
                     <display value="Optometrist license number"></display>
                  </coding>
               </type>
               <system value="http://www.umontreal.ca/labevents"></system>
               <value value="60274"></value>
               <assigner>
                  <reference value="10004401"></reference>
               </assigner>
            </identifier>
            <partOf>
               <reference value="25753439"></reference>
            </partOf>
            <status value="final"></status>
            <code>
               <text value="Phosphate"></text>
            </code>
            <subject>
               <reference value="10004401"></reference>
            </subject>
            <effectiveDateTime value="2142-08-28T00:00:00+00:00"></effectiveDateTime>
            <valueQuantity>
               <value value="3.0"></value>
               <unit value="mg/dL"></unit>
            </valueQuantity>
         </Observation>
      </resource>
      <request>
         <method value="POST"></method>
         <url value="Observation"></url>
      </request>
   </entry>
   <entry>
      <resource>
         <Observation xmlns="http://hl7.org/fhir">
            <meta>
               <profile value="https://www.umontreal.ca/fhir/core/modul-labor/StructureDefinition/ObservationLab"></profile>
            </meta>
            <identifier>
               <use value="usual"></use>
               <type>
                  <coding>
                     <system value="http://terminology.hl7.org/CodeSystem/v2-0203"></system>
                     <code value="OBI"></code>
                     <display value="Optometrist license number"></display>
                  </coding>
               </type>
               <system value="http://www.umontreal.ca/labevents"></system>
               <value value="60275"></value>
               <assigner>
                  <reference value="10004401"></reference>
               </assigner>
            </identifier>
            <partOf>
               <reference value="25753439"></reference>
            </partOf>
            <status value="final"></status>
            <code>
               <text value="Potassium"></text>
            </code>
            <subject>
               <reference value="10004401"></reference>
            </subject>
            <effectiveDateTime value="2142-08-28T00:00:00+00:00"></effectiveDateTime>
            <valueQuantity>
               <value value="4.6"></value>
               <unit value="mEq/L"></unit>
            </valueQuantity>
         </Observation>
      </resource>
      <request>
         <method value="POST"></method>
         <url value="Observation"></url>
      </request>
   </entry>
   <entry>
      <resource>
         <Observation xmlns="http://hl7.org/fhir">
            <meta>
               <profile value="https://www.umontreal.ca/fhir/core/modul-labor/StructureDefinition/ObservationLab"></profile>
            </meta>
            <identifier>
               <use value="usual"></use>
               <type>
                  <coding>
                     <system value="http://terminology.hl7.org/CodeSystem/v2-0203"></system>
                     <code value="OBI"></code>
                     <display value="Optometrist license number"></display>
                  </coding>
               </type>
               <system value="http://www.umontreal.ca/labevents"></system>
               <value value="60276"></value>
               <assigner>
                  <reference value="10004401"></reference>
               </assigner>
            </identifier>
            <partOf>
               <reference value="25753439"></reference>
            </partOf>
            <status value="final"></status>
            <code>
               <text value="Sodium"></text>
            </code>
            <subject>
               <reference value="10004401"></reference>
            </subject>
            <effectiveDateTime value="2142-08-28T00:00:00+00:00"></effectiveDateTime>
            <valueQuantity>
               <value value="134.0"></value>
               <unit value="mEq/L"></unit>
            </valueQuantity>
         </Observation>
      </resource>
      <request>
         <method value="POST"></method>
         <url value="Observation"></url>
      </request>
   </entry>
   <entry>
      <resource>
         <Observation xmlns="http://hl7.org/fhir">
            <meta>
               <profile value="https://www.umontreal.ca/fhir/core/modul-labor/StructureDefinition/ObservationLab"></profile>
            </meta>
            <identifier>
               <use value="usual"></use>
               <type>
                  <coding>
                     <system value="http://terminology.hl7.org/CodeSystem/v2-0203"></system>
                     <code value="OBI"></code>
                     <display value="Optometrist license number"></display>
                  </coding>
               </type>
               <system value="http://www.umontreal.ca/labevents"></system>
               <value value="60277"></value>
               <assigner>
                  <reference value="10004401"></reference>
               </assigner>
            </identifier>
            <partOf>
               <reference value="25753439"></reference>
            </partOf>
            <status value="final"></status>
            <code>
               <text value="Urea Nitrogen"></text>
            </code>
            <subject>
               <reference value="10004401"></reference>
            </subject>
            <effectiveDateTime value="2142-08-28T00:00:00+00:00"></effectiveDateTime>
            <valueQuantity>
               <value value="32.0"></value>
               <unit value="mg/dL"></unit>
            </valueQuantity>
         </Observation>
      </resource>
      <request>
         <method value="POST"></method>
         <url value="Observation"></url>
      </request>
   </entry>
   <entry>
      <resource>
         <Observation xmlns="http://hl7.org/fhir">
            <meta>
               <profile value="https://www.umontreal.ca/fhir/core/modul-labor/StructureDefinition/ObservationLab"></profile>
            </meta>
            <identifier>
               <use value="usual"></use>
               <type>
                  <coding>
                     <system value="http://terminology.hl7.org/CodeSystem/v2-0203"></system>
                     <code value="OBI"></code>
                     <display value="Optometrist license number"></display>
                  </coding>
               </type>
               <system value="http://www.umontreal.ca/labevents"></system>
               <value value="60278"></value>
               <assigner>
                  <reference value="10004401"></reference>
               </assigner>
            </identifier>
            <partOf>
               <reference value="25753439"></reference>
            </partOf>
            <status value="final"></status>
            <code>
               <text value="Hematocrit"></text>
            </code>
            <subject>
               <reference value="10004401"></reference>
            </subject>
            <effectiveDateTime value="2142-08-28T00:00:00+00:00"></effectiveDateTime>
            <valueQuantity>
               <value value="25.9"></value>
               <unit value="%"></unit>
            </valueQuantity>
         </Observation>
      </resource>
      <request>
         <method value="POST"></method>
         <url value="Observation"></url>
      </request>
   </entry>
   <entry>
      <resource>
         <Observation xmlns="http://hl7.org/fhir">
            <meta>
               <profile value="https://www.umontreal.ca/fhir/core/modul-labor/StructureDefinition/ObservationLab"></profile>
            </meta>
            <identifier>
               <use value="usual"></use>
               <type>
                  <coding>
                     <system value="http://terminology.hl7.org/CodeSystem/v2-0203"></system>
                     <code value="OBI"></code>
                     <display value="Optometrist license number"></display>
                  </coding>
               </type>
               <system value="http://www.umontreal.ca/labevents"></system>
               <value value="60279"></value>
               <assigner>
                  <reference value="10004401"></reference>
               </assigner>
            </identifier>
            <partOf>
               <reference value="25753439"></reference>
            </partOf>
            <status value="final"></status>
            <code>
               <text value="Hemoglobin"></text>
            </code>
            <subject>
               <reference value="10004401"></reference>
            </subject>
            <effectiveDateTime value="2142-08-28T00:00:00+00:00"></effectiveDateTime>
            <valueQuantity>
               <value value="8.1"></value>
               <unit value="g/dL"></unit>
            </valueQuantity>
         </Observation>
      </resource>
      <request>
         <method value="POST"></method>
         <url value="Observation"></url>
      </request>
   </entry>
   <entry>
      <resource>
         <Observation xmlns="http://hl7.org/fhir">
            <meta>
               <profile value="https://www.umontreal.ca/fhir/core/modul-labor/StructureDefinition/ObservationLab"></profile>
            </meta>
            <identifier>
               <use value="usual"></use>
               <type>
                  <coding>
                     <system value="http://terminology.hl7.org/CodeSystem/v2-0203"></system>
                     <code value="OBI"></code>
                     <display value="Optometrist license number"></display>
                  </coding>
               </type>
               <system value="http://www.umontreal.ca/labevents"></system>
               <value value="60280"></value>
               <assigner>
                  <reference value="10004401"></reference>
               </assigner>
            </identifier>
            <partOf>
               <reference value="25753439"></reference>
            </partOf>
            <status value="final"></status>
            <code>
               <text value="MCH"></text>
            </code>
            <subject>
               <reference value="10004401"></reference>
            </subject>
            <effectiveDateTime value="2142-08-28T00:00:00+00:00"></effectiveDateTime>
            <valueQuantity>
               <value value="26.8"></value>
               <unit value="pg"></unit>
            </valueQuantity>
         </Observation>
      </resource>
      <request>
         <method value="POST"></method>
         <url value="Observation"></url>
      </request>
   </entry>
   <entry>
      <resource>
         <Observation xmlns="http://hl7.org/fhir">
            <meta>
               <profile value="https://www.umontreal.ca/fhir/core/modul-labor/StructureDefinition/ObservationLab"></profile>
            </meta>
            <identifier>
               <use value="usual"></use>
               <type>
                  <coding>
                     <system value="http://terminology.hl7.org/CodeSystem/v2-0203"></system>
                     <code value="OBI"></code>
                     <display value="Optometrist license number"></display>
                  </coding>
               </type>
               <system value="http://www.umontreal.ca/labevents"></system>
               <value value="60281"></value>
               <assigner>
                  <reference value="10004401"></reference>
               </assigner>
            </identifier>
            <partOf>
               <reference value="25753439"></reference>
            </partOf>
            <status value="final"></status>
            <code>
               <text value="MCHC"></text>
            </code>
            <subject>
               <reference value="10004401"></reference>
            </subject>
            <effectiveDateTime value="2142-08-28T00:00:00+00:00"></effectiveDateTime>
            <valueQuantity>
               <value value="31.2"></value>
               <unit value="%"></unit>
            </valueQuantity>
         </Observation>
      </resource>
      <request>
         <method value="POST"></method>
         <url value="Observation"></url>
      </request>
   </entry>
   <entry>
      <resource>
         <Observation xmlns="http://hl7.org/fhir">
            <meta>
               <profile value="https://www.umontreal.ca/fhir/core/modul-labor/StructureDefinition/ObservationLab"></profile>
            </meta>
            <identifier>
               <use value="usual"></use>
               <type>
                  <coding>
                     <system value="http://terminology.hl7.org/CodeSystem/v2-0203"></system>
                     <code value="OBI"></code>
                     <display value="Optometrist license number"></display>
                  </coding>
               </type>
               <system value="http://www.umontreal.ca/labevents"></system>
               <value value="60282"></value>
               <assigner>
                  <reference value="10004401"></reference>
               </assigner>
            </identifier>
            <partOf>
               <reference value="25753439"></reference>
            </partOf>
            <status value="final"></status>
            <code>
               <text value="MCV"></text>
            </code>
            <subject>
               <reference value="10004401"></reference>
            </subject>
            <effectiveDateTime value="2142-08-28T00:00:00+00:00"></effectiveDateTime>
            <valueQuantity>
               <value value="86.0"></value>
               <unit value="fL"></unit>
            </valueQuantity>
         </Observation>
      </resource>
      <request>
         <method value="POST"></method>
         <url value="Observation"></url>
      </request>
   </entry>
   <entry>
      <resource>
         <Observation xmlns="http://hl7.org/fhir">
            <meta>
               <profile value="https://www.umontreal.ca/fhir/core/modul-labor/StructureDefinition/ObservationLab"></profile>
            </meta>
            <identifier>
               <use value="usual"></use>
               <type>
                  <coding>
                     <system value="http://terminology.hl7.org/CodeSystem/v2-0203"></system>
                     <code value="OBI"></code>
                     <display value="Optometrist license number"></display>
                  </coding>
               </type>
               <system value="http://www.umontreal.ca/labevents"></system>
               <value value="60283"></value>
               <assigner>
                  <reference value="10004401"></reference>
               </assigner>
            </identifier>
            <partOf>
               <reference value="25753439"></reference>
            </partOf>
            <status value="final"></status>
            <code>
               <text value="Platelet Count"></text>
            </code>
            <subject>
               <reference value="10004401"></reference>
            </subject>
            <effectiveDateTime value="2142-08-28T00:00:00+00:00"></effectiveDateTime>
            <valueQuantity>
               <value value="196.0"></value>
               <unit value="K/uL"></unit>
            </valueQuantity>
         </Observation>
      </resource>
      <request>
         <method value="POST"></method>
         <url value="Observation"></url>
      </request>
   </entry>
   <entry>
      <resource>
         <Observation xmlns="http://hl7.org/fhir">
            <meta>
               <profile value="https://www.umontreal.ca/fhir/core/modul-labor/StructureDefinition/ObservationLab"></profile>
            </meta>
            <identifier>
               <use value="usual"></use>
               <type>
                  <coding>
                     <system value="http://terminology.hl7.org/CodeSystem/v2-0203"></system>
                     <code value="OBI"></code>
                     <display value="Optometrist license number"></display>
                  </coding>
               </type>
               <system value="http://www.umontreal.ca/labevents"></system>
               <value value="60284"></value>
               <assigner>
                  <reference value="10004401"></reference>
               </assigner>
            </identifier>
            <partOf>
               <reference value="25753439"></reference>
            </partOf>
            <status value="final"></status>
            <code>
               <text value="RDW"></text>
            </code>
            <subject>
               <reference value="10004401"></reference>
            </subject>
            <effectiveDateTime value="2142-08-28T00:00:00+00:00"></effectiveDateTime>
            <valueQuantity>
               <value value="22.0"></value>
               <unit value="%"></unit>
            </valueQuantity>
         </Observation>
      </resource>
      <request>
         <method value="POST"></method>
         <url value="Observation"></url>
      </request>
   </entry>
   <entry>
      <resource>
         <Observation xmlns="http://hl7.org/fhir">
            <meta>
               <profile value="https://www.umontreal.ca/fhir/core/modul-labor/StructureDefinition/ObservationLab"></profile>
            </meta>
            <identifier>
               <use value="usual"></use>
               <type>
                  <coding>
                     <system value="http://terminology.hl7.org/CodeSystem/v2-0203"></system>
                     <code value="OBI"></code>
                     <display value="Optometrist license number"></display>
                  </coding>
               </type>
               <system value="http://www.umontreal.ca/labevents"></system>
               <value value="60285"></value>
               <assigner>
                  <reference value="10004401"></reference>
               </assigner>
            </identifier>
            <partOf>
               <reference value="25753439"></reference>
            </partOf>
            <status value="final"></status>
            <code>
               <text value="Red Blood Cells"></text>
            </code>
            <subject>
               <reference value="10004401"></reference>
            </subject>
            <effectiveDateTime value="2142-08-28T00:00:00+00:00"></effectiveDateTime>
            <valueQuantity>
               <value value="3.02"></value>
               <unit value="m/uL"></unit>
            </valueQuantity>
         </Observation>
      </resource>
      <request>
         <method value="POST"></method>
         <url value="Observation"></url>
      </request>
   </entry>
   <entry>
      <resource>
         <Observation xmlns="http://hl7.org/fhir">
            <meta>
               <profile value="https://www.umontreal.ca/fhir/core/modul-labor/StructureDefinition/ObservationLab"></profile>
            </meta>
            <identifier>
               <use value="usual"></use>
               <type>
                  <coding>
                     <system value="http://terminology.hl7.org/CodeSystem/v2-0203"></system>
                     <code value="OBI"></code>
                     <display value="Optometrist license number"></display>
                  </coding>
               </type>
               <system value="http://www.umontreal.ca/labevents"></system>
               <value value="60286"></value>
               <assigner>
                  <reference value="10004401"></reference>
               </assigner>
            </identifier>
            <partOf>
               <reference value="25753439"></reference>
            </partOf>
            <status value="final"></status>
            <code>
               <text value="White Blood Cells"></text>
            </code>
            <subject>
               <reference value="10004401"></reference>
            </subject>
            <effectiveDateTime value="2142-08-28T00:00:00+00:00"></effectiveDateTime>
            <valueQuantity>
               <value value="4.4"></value>
               <unit value="K/uL"></unit>
            </valueQuantity>
         </Observation>
      </resource>
      <request>
         <method value="POST"></method>
         <url value="Observation"></url>
      </request>
   </entry>
   <entry>
      <resource>
         <Observation xmlns="http://hl7.org/fhir">
            <meta>
               <profile value="https://www.umontreal.ca/fhir/core/modul-labor/StructureDefinition/ObservationLab"></profile>
            </meta>
            <identifier>
               <use value="usual"></use>
               <type>
                  <coding>
                     <system value="http://terminology.hl7.org/CodeSystem/v2-0203"></system>
                     <code value="OBI"></code>
                     <display value="Optometrist license number"></display>
                  </coding>
               </type>
               <system value="http://www.umontreal.ca/labevents"></system>
               <value value="60287"></value>
               <assigner>
                  <reference value="10004401"></reference>
               </assigner>
            </identifier>
            <partOf>
               <reference value="25753439"></reference>
            </partOf>
            <status value="final"></status>
            <code>
               <text value="INR(PT)"></text>
            </code>
            <subject>
               <reference value="10004401"></reference>
            </subject>
            <effectiveDateTime value="2142-08-28T00:00:00+00:00"></effectiveDateTime>
            <valueQuantity>
               <value value="1.7"></value>
            </valueQuantity>
         </Observation>
      </resource>
      <request>
         <method value="POST"></method>
         <url value="Observation"></url>
      </request>
   </entry>
   <entry>
      <resource>
         <Observation xmlns="http://hl7.org/fhir">
            <meta>
               <profile value="https://www.umontreal.ca/fhir/core/modul-labor/StructureDefinition/ObservationLab"></profile>
            </meta>
            <identifier>
               <use value="usual"></use>
               <type>
                  <coding>
                     <system value="http://terminology.hl7.org/CodeSystem/v2-0203"></system>
                     <code value="OBI"></code>
                     <display value="Optometrist license number"></display>
                  </coding>
               </type>
               <system value="http://www.umontreal.ca/labevents"></system>
               <value value="60288"></value>
               <assigner>
                  <reference value="10004401"></reference>
               </assigner>
            </identifier>
            <partOf>
               <reference value="25753439"></reference>
            </partOf>
            <status value="final"></status>
            <code>
               <text value="PT"></text>
            </code>
            <subject>
               <reference value="10004401"></reference>
            </subject>
            <effectiveDateTime value="2142-08-28T00:00:00+00:00"></effectiveDateTime>
            <valueQuantity>
               <value value="18.7"></value>
               <unit value="sec"></unit>
            </valueQuantity>
         </Observation>
      </resource>
      <request>
         <method value="POST"></method>
         <url value="Observation"></url>
      </request>
   </entry>
   <entry>
      <resource>
         <Observation xmlns="http://hl7.org/fhir">
            <meta>
               <profile value="https://www.umontreal.ca/fhir/core/modul-labor/StructureDefinition/ObservationLab"></profile>
            </meta>
            <identifier>
               <use value="usual"></use>
               <type>
                  <coding>
                     <system value="http://terminology.hl7.org/CodeSystem/v2-0203"></system>
                     <code value="OBI"></code>
                     <display value="Optometrist license number"></display>
                  </coding>
               </type>
               <system value="http://www.umontreal.ca/labevents"></system>
               <value value="60289"></value>
               <assigner>
                  <reference value="10004401"></reference>
               </assigner>
            </identifier>
            <partOf>
               <reference value="25753439"></reference>
            </partOf>
            <status value="final"></status>
            <code>
               <text value="PTT"></text>
            </code>
            <subject>
               <reference value="10004401"></reference>
            </subject>
            <effectiveDateTime value="2142-08-28T00:00:00+00:00"></effectiveDateTime>
            <valueQuantity>
               <value value="33.1"></value>
               <unit value="sec"></unit>
            </valueQuantity>
         </Observation>
      </resource>
      <request>
         <method value="POST"></method>
         <url value="Observation"></url>
      </request>
   </entry>
   <entry>
      <resource>
         <Observation xmlns="http://hl7.org/fhir">
            <meta>
               <profile value="https://www.umontreal.ca/fhir/core/modul-labor/StructureDefinition/ObservationLab"></profile>
            </meta>
            <identifier>
               <use value="usual"></use>
               <type>
                  <coding>
                     <system value="http://terminology.hl7.org/CodeSystem/v2-0203"></system>
                     <code value="OBI"></code>
                     <display value="Optometrist license number"></display>
                  </coding>
               </type>
               <system value="http://www.umontreal.ca/labevents"></system>
               <value value="60290"></value>
               <assigner>
                  <reference value="10004401"></reference>
               </assigner>
            </identifier>
            <partOf>
               <reference value="25753439"></reference>
            </partOf>
            <status value="final"></status>
            <code>
               <text value="Hematocrit"></text>
            </code>
            <subject>
               <reference value="10004401"></reference>
            </subject>
            <effectiveDateTime value="2142-08-28T00:00:00+00:00"></effectiveDateTime>
            <valueQuantity>
               <value value="29.0"></value>
               <unit value="%"></unit>
            </valueQuantity>
         </Observation>
      </resource>
      <request>
         <method value="POST"></method>
         <url value="Observation"></url>
      </request>
   </entry>
</Bundle>