<Bundle xmlns="http://hl7.org/fhir">
   <type value="transaction"></type>
   <entry>
      <fullUrl value="urn:uuid:4b8c121d-ff30-45a6-909e-fb3f7bce866d"></fullUrl>
      <resource>
         <Patient xmlns="http://hl7.org/fhir">
            <meta>
               <profile value="https://www.medizininformatik-initiative.de/fhir/core/modul-person/StructureDefinition/Patient"></profile>
            </meta>
            <text>
               <status value="generated"></status>
               <div xmlns="http://www.w3.org/1999/xhtml"> 
                  <div class="hapiHeaderText">10032409 
                     <b>PATIENT_10032409 </b> 
                  </div> 
                  <table class="hapiPropertyTable"> 
                     <tbody> 
                        <tr> 
                           <td>Identifier</td> 
                           <td>10032409</td> 
                        </tr> 
                        <tr> 
                           <td>Address</td> 
                           <td> 
                              <span>Musterstrasse 1 </span> 
                              <br></br> 
                              <span>Berlin </span> 
                              <span>DE </span> 
                           </td> 
                        </tr> 
                        <tr> 
                           <td>Date of birth</td> 
                           <td> 
                              <span>01 January 2053</span> 
                           </td> 
                        </tr> 
                     </tbody> 
                  </table> 
               </div>
            </text>
            <identifier>
               <use value="usual"></use>
               <type>
                  <coding>
                     <system value="http://terminology.hl7.org/CodeSystem/v2-0203"></system>
                     <code value="MR"></code>
                  </coding>
               </type>
               <system value="http://www.umontreal.ca/patients"></system>
               <value value="10032409"></value>
            </identifier>
            <name>
               <use value="official"></use>
               <family value="Patient_10032409">
                  <extension url="http://hl7.org/fhir/StructureDefinition/humanname-own-name">
                     <valueString value="Patient_10032409"></valueString>
                  </extension>
               </family>
               <given value="10032409"></given>
            </name>
            <gender value="female"></gender>
            <birthDate value="2053-01-01">
               <extension url="http://hl7.org/fhir/StructureDefinition/data-absent-reason">
                  <valueCode value="masked"></valueCode>
               </extension>
            </birthDate>
            <deceasedDateTime value="2133-10-01T00:00:00+00:00"></deceasedDateTime>
            <address>
               <type value="postal"></type>
               <line value="Musterstrasse 1">
                  <extension url="http://hl7.org/fhir/StructureDefinition/iso21090-ADXP-streetName">
                     <valueString value="Musterstrasse"></valueString>
                  </extension>
                  <extension url="http://hl7.org/fhir/StructureDefinition/iso21090-ADXP-houseNumber">
                     <valueString value="1"></valueString>
                  </extension>
               </line>
               <city value="Berlin"></city>
               <postalCode value="12043"></postalCode>
               <country value="DE"></country>
            </address>
            <maritalStatus>
               <coding>
                  <system value="http://hl7.org/fhir/ValueSet/marital-status"></system>
                  <code value="D"></code>
                  <display value="Divorced"></display>
               </coding>
            </maritalStatus>
         </Patient>
      </resource>
      <request>
         <method value="POST"></method>
         <url value="Patient"></url>
         <ifNoneExist value="identifier=http://www.umontreal.ca/patients|10032409"></ifNoneExist>
      </request>
   </entry>
   <entry>
      <fullUrl value="urn:uuid:2cd27265-a906-45af-ac9d-9a51f1ac6aae"></fullUrl>
      <resource>
         <Organization xmlns="http://hl7.org/fhir">
            <identifier>
               <system value="http://www.umontreal.ca"></system>
               <value value="hospital"></value>
            </identifier>
            <type>
               <coding>
                  <system value="http://hl7.org/fhir/organization-type"></system>
                  <code value="prov"></code>
                  <display value="Healthcare Provider"></display>
               </coding>
            </type>
            <name value="IMI-Mimic Hospital"></name>
         </Organization>
      </resource>
      <request>
         <method value="POST"></method>
         <url value="Organization"></url>
         <ifNoneExist value="identifier=http://www.umontreal.ca|hospital"></ifNoneExist>
      </request>
   </entry>
   <entry>
      <fullUrl value="urn:uuid:90403f2d-bfd1-4573-b2ab-aa5f036c968f"></fullUrl>
      <resource>
         <Condition xmlns="http://hl7.org/fhir">
            <meta>
               <profile value="https://www.medizininformatik-initiative.de/fhir/core/modul-diagnose/StructureDefinition/Diagnose"></profile>
            </meta>
            <identifier>
               <system value="http://www.imi-mimic.de/diags"></system>
               <value value="null_10"></value>
            </identifier>
            <subject>
               <reference value="10032409"></reference>
            </subject>
            <recordedDate>
               <extension url="http://hl7.org/fhir/StructureDefinition/data-absent-reason">
                  <valueCode value="unknown"></valueCode>
               </extension>
            </recordedDate>
         </Condition>
      </resource>
      <request>
         <method value="POST"></method>
         <url value="Condition"></url>
         <ifNoneExist value="identifier=http://www.imi-mimic.de/diags|null_10"></ifNoneExist>
      </request>
   </entry>
   <entry>
      <fullUrl value="urn:uuid:497623fb-8de4-448d-918b-6c86a451f45a"></fullUrl>
      <resource>
         <Condition xmlns="http://hl7.org/fhir">
            <meta>
               <profile value="https://www.medizininformatik-initiative.de/fhir/core/modul-diagnose/StructureDefinition/Diagnose"></profile>
            </meta>
            <identifier>
               <system value="http://www.imi-mimic.de/diags"></system>
               <value value="null_9"></value>
            </identifier>
            <subject>
               <reference value="10032409"></reference>
            </subject>
            <recordedDate>
               <extension url="http://hl7.org/fhir/StructureDefinition/data-absent-reason">
                  <valueCode value="unknown"></valueCode>
               </extension>
            </recordedDate>
         </Condition>
      </resource>
      <request>
         <method value="POST"></method>
         <url value="Condition"></url>
         <ifNoneExist value="identifier=http://www.imi-mimic.de/diags|null_9"></ifNoneExist>
      </request>
   </entry>
   <entry>
      <fullUrl value="urn:uuid:5b8c55ea-90a3-48da-8fee-7a57927da3a5"></fullUrl>
      <resource>
         <Condition xmlns="http://hl7.org/fhir">
            <meta>
               <profile value="https://www.medizininformatik-initiative.de/fhir/core/modul-diagnose/StructureDefinition/Diagnose"></profile>
            </meta>
            <identifier>
               <system value="http://www.imi-mimic.de/diags"></system>
               <value value="null_8"></value>
            </identifier>
            <subject>
               <reference value="10032409"></reference>
            </subject>
            <recordedDate>
               <extension url="http://hl7.org/fhir/StructureDefinition/data-absent-reason">
                  <valueCode value="unknown"></valueCode>
               </extension>
            </recordedDate>
         </Condition>
      </resource>
      <request>
         <method value="POST"></method>
         <url value="Condition"></url>
         <ifNoneExist value="identifier=http://www.imi-mimic.de/diags|null_8"></ifNoneExist>
      </request>
   </entry>
   <entry>
      <fullUrl value="urn:uuid:4bfcc8b6-3704-43b0-9d01-0da4a62765e6"></fullUrl>
      <resource>
         <Condition xmlns="http://hl7.org/fhir">
            <meta>
               <profile value="https://www.medizininformatik-initiative.de/fhir/core/modul-diagnose/StructureDefinition/Diagnose"></profile>
            </meta>
            <identifier>
               <system value="http://www.imi-mimic.de/diags"></system>
               <value value="null_7"></value>
            </identifier>
            <subject>
               <reference value="10032409"></reference>
            </subject>
            <recordedDate>
               <extension url="http://hl7.org/fhir/StructureDefinition/data-absent-reason">
                  <valueCode value="unknown"></valueCode>
               </extension>
            </recordedDate>
         </Condition>
      </resource>
      <request>
         <method value="POST"></method>
         <url value="Condition"></url>
         <ifNoneExist value="identifier=http://www.imi-mimic.de/diags|null_7"></ifNoneExist>
      </request>
   </entry>
   <entry>
      <fullUrl value="urn:uuid:c65bcfea-660d-44ae-800a-6f9670934bef"></fullUrl>
      <resource>
         <Condition xmlns="http://hl7.org/fhir">
            <meta>
               <profile value="https://www.medizininformatik-initiative.de/fhir/core/modul-diagnose/StructureDefinition/Diagnose"></profile>
            </meta>
            <identifier>
               <system value="http://www.imi-mimic.de/diags"></system>
               <value value="null_6"></value>
            </identifier>
            <subject>
               <reference value="10032409"></reference>
            </subject>
            <recordedDate>
               <extension url="http://hl7.org/fhir/StructureDefinition/data-absent-reason">
                  <valueCode value="unknown"></valueCode>
               </extension>
            </recordedDate>
         </Condition>
      </resource>
      <request>
         <method value="POST"></method>
         <url value="Condition"></url>
         <ifNoneExist value="identifier=http://www.imi-mimic.de/diags|null_6"></ifNoneExist>
      </request>
   </entry>
   <entry>
      <fullUrl value="urn:uuid:dc25b0af-7093-4919-96e2-df55f200e9b3"></fullUrl>
      <resource>
         <Condition xmlns="http://hl7.org/fhir">
            <meta>
               <profile value="https://www.medizininformatik-initiative.de/fhir/core/modul-diagnose/StructureDefinition/Diagnose"></profile>
            </meta>
            <identifier>
               <system value="http://www.imi-mimic.de/diags"></system>
               <value value="null_5"></value>
            </identifier>
            <subject>
               <reference value="10032409"></reference>
            </subject>
            <recordedDate>
               <extension url="http://hl7.org/fhir/StructureDefinition/data-absent-reason">
                  <valueCode value="unknown"></valueCode>
               </extension>
            </recordedDate>
         </Condition>
      </resource>
      <request>
         <method value="POST"></method>
         <url value="Condition"></url>
         <ifNoneExist value="identifier=http://www.imi-mimic.de/diags|null_5"></ifNoneExist>
      </request>
   </entry>
   <entry>
      <fullUrl value="urn:uuid:b83736fe-d347-4262-a462-1ccfe7944ffa"></fullUrl>
      <resource>
         <Condition xmlns="http://hl7.org/fhir">
            <meta>
               <profile value="https://www.medizininformatik-initiative.de/fhir/core/modul-diagnose/StructureDefinition/Diagnose"></profile>
            </meta>
            <identifier>
               <system value="http://www.imi-mimic.de/diags"></system>
               <value value="null_4"></value>
            </identifier>
            <subject>
               <reference value="10032409"></reference>
            </subject>
            <recordedDate>
               <extension url="http://hl7.org/fhir/StructureDefinition/data-absent-reason">
                  <valueCode value="unknown"></valueCode>
               </extension>
            </recordedDate>
         </Condition>
      </resource>
      <request>
         <method value="POST"></method>
         <url value="Condition"></url>
         <ifNoneExist value="identifier=http://www.imi-mimic.de/diags|null_4"></ifNoneExist>
      </request>
   </entry>
   <entry>
      <fullUrl value="urn:uuid:812cc0ca-b4d2-491e-a77b-ad378c56df23"></fullUrl>
      <resource>
         <Condition xmlns="http://hl7.org/fhir">
            <meta>
               <profile value="https://www.medizininformatik-initiative.de/fhir/core/modul-diagnose/StructureDefinition/Diagnose"></profile>
            </meta>
            <identifier>
               <system value="http://www.imi-mimic.de/diags"></system>
               <value value="null_4"></value>
            </identifier>
            <subject>
               <reference value="10032409"></reference>
            </subject>
            <recordedDate>
               <extension url="http://hl7.org/fhir/StructureDefinition/data-absent-reason">
                  <valueCode value="unknown"></valueCode>
               </extension>
            </recordedDate>
         </Condition>
      </resource>
      <request>
         <method value="POST"></method>
         <url value="Condition"></url>
         <ifNoneExist value="identifier=http://www.imi-mimic.de/diags|null_4"></ifNoneExist>
      </request>
   </entry>
   <entry>
      <fullUrl value="urn:uuid:727d5db2-c09a-4cc3-8850-54c267510d45"></fullUrl>
      <resource>
         <Condition xmlns="http://hl7.org/fhir">
            <meta>
               <profile value="https://www.medizininformatik-initiative.de/fhir/core/modul-diagnose/StructureDefinition/Diagnose"></profile>
            </meta>
            <identifier>
               <system value="http://www.imi-mimic.de/diags"></system>
               <value value="null_3"></value>
            </identifier>
            <subject>
               <reference value="10032409"></reference>
            </subject>
            <recordedDate>
               <extension url="http://hl7.org/fhir/StructureDefinition/data-absent-reason">
                  <valueCode value="unknown"></valueCode>
               </extension>
            </recordedDate>
         </Condition>
      </resource>
      <request>
         <method value="POST"></method>
         <url value="Condition"></url>
         <ifNoneExist value="identifier=http://www.imi-mimic.de/diags|null_3"></ifNoneExist>
      </request>
   </entry>
   <entry>
      <fullUrl value="urn:uuid:2ab481e3-9752-4226-8e46-301fae3d119c"></fullUrl>
      <resource>
         <Condition xmlns="http://hl7.org/fhir">
            <meta>
               <profile value="https://www.medizininformatik-initiative.de/fhir/core/modul-diagnose/StructureDefinition/Diagnose"></profile>
            </meta>
            <identifier>
               <system value="http://www.imi-mimic.de/diags"></system>
               <value value="null_2"></value>
            </identifier>
            <subject>
               <reference value="10032409"></reference>
            </subject>
            <recordedDate>
               <extension url="http://hl7.org/fhir/StructureDefinition/data-absent-reason">
                  <valueCode value="unknown"></valueCode>
               </extension>
            </recordedDate>
         </Condition>
      </resource>
      <request>
         <method value="POST"></method>
         <url value="Condition"></url>
         <ifNoneExist value="identifier=http://www.imi-mimic.de/diags|null_2"></ifNoneExist>
      </request>
   </entry>
   <entry>
      <fullUrl value="urn:uuid:2aa3e7b4-78e5-4eee-aabe-51a0538fd032"></fullUrl>
      <resource>
         <Condition xmlns="http://hl7.org/fhir">
            <meta>
               <profile value="https://www.medizininformatik-initiative.de/fhir/core/modul-diagnose/StructureDefinition/Diagnose"></profile>
            </meta>
            <identifier>
               <system value="http://www.imi-mimic.de/diags"></system>
               <value value="null_1"></value>
            </identifier>
            <subject>
               <reference value="10032409"></reference>
            </subject>
            <recordedDate>
               <extension url="http://hl7.org/fhir/StructureDefinition/data-absent-reason">
                  <valueCode value="unknown"></valueCode>
               </extension>
            </recordedDate>
         </Condition>
      </resource>
      <request>
         <method value="POST"></method>
         <url value="Condition"></url>
         <ifNoneExist value="identifier=http://www.imi-mimic.de/diags|null_1"></ifNoneExist>
      </request>
   </entry>
   <entry>
      <fullUrl value="urn:uuid:eeab682b-a852-418a-961e-449455605871"></fullUrl>
      <resource>
         <Location xmlns="http://hl7.org/fhir">
            <identifier>
               <system value="http://www.imi-mimic.de/location/Medicine"></system>
               <value value="Medicine"></value>
            </identifier>
            <name value="Medicine"></name>
            <type>
               <coding>
                  <system value="http://terminology.hl7.org/ValueSet/v3-ServiceDeliveryLocationRoleType"></system>
                  <code value="_ServiceDeliveryLocationRoleType"></code>
                  <display value="ServiceDeliveryLocationRoleType"></display>
               </coding>
            </type>
            <physicalType>
               <coding>
                  <system value="http://terminology.hl7.org/CodeSystem/location-physical-type"></system>
                  <code value="wa"></code>
                  <display value="Ward"></display>
               </coding>
            </physicalType>
            <managingOrganization>
               <reference value="urn:uuid:5c4eecc9-1c0d-4e2f-95a6-fcb76522417a"></reference>
            </managingOrganization>
         </Location>
      </resource>
      <request>
         <method value="POST"></method>
         <url value="Location"></url>
         <ifNoneExist value="identifier=http://www.imi-mimic.de/location/Medicine|Medicine"></ifNoneExist>
      </request>
   </entry>
   <entry>
      <fullUrl value="urn:uuid:4e244b8e-d4b3-4581-81cd-1423b067240f"></fullUrl>
      <resource>
         <Encounter xmlns="http://hl7.org/fhir">
            <status value="finished"></status>
            <class>
               <system value="https://www.medizininformatik-initiative.de/fhir/core/CodeSystem/EncounterClassAdditionsDE"></system>
               <code value="_ActEncounterCode"></code>
               <display value="ActEncounterCode"></display>
            </class>
            <period>
               <start value="2128-10-01T00:00:00+00:00"></start>
               <end value="2128-10-03T00:00:00+00:00"></end>
            </period>
            <location>
               <location>
                  <reference value="urn:uuid:eeab682b-a852-418a-961e-449455605871"></reference>
               </location>
               <status value="completed"></status>
               <physicalType>
                  <coding>
                     <system value="http://terminology.hl7.org/CodeSystem/location-physical-type"></system>
                     <code value="wa"></code>
                     <display value="Ward"></display>
                  </coding>
               </physicalType>
               <period>
                  <start value="2128-10-01T00:00:00+00:00"></start>
                  <end value="2128-10-03T00:00:00+00:00"></end>
               </period>
            </location>
            <serviceProvider>
               <reference value="urn:uuid:5c4eecc9-1c0d-4e2f-95a6-fcb76522417a"></reference>
            </serviceProvider>
            <partOf>
               <reference value="urn:uuid:771d9289-5695-45df-9fc9-9cc6b664071e"></reference>
            </partOf>
         </Encounter>
      </resource>
      <request>
         <method value="POST"></method>
         <url value="Encounter"></url>
         <ifNoneExist value="identifier=null|null"></ifNoneExist>
      </request>
   </entry>
   <entry>
      <fullUrl value="urn:uuid:4338d3a9-d48a-46dd-bfd8-6fd8722080b0"></fullUrl>
      <resource>
         <Location xmlns="http://hl7.org/fhir">
            <identifier>
               <system value="http://www.imi-mimic.de/location/Unknown"></system>
               <value value="Unknown"></value>
            </identifier>
            <name value="Unknown"></name>
            <type>
               <coding>
                  <system value="http://terminology.hl7.org/ValueSet/v3-ServiceDeliveryLocationRoleType"></system>
                  <code value="_ServiceDeliveryLocationRoleType"></code>
                  <display value="ServiceDeliveryLocationRoleType"></display>
               </coding>
            </type>
            <physicalType>
               <coding>
                  <system value="http://terminology.hl7.org/CodeSystem/location-physical-type"></system>
                  <code value="wa"></code>
                  <display value="Ward"></display>
               </coding>
            </physicalType>
            <managingOrganization>
               <reference value="urn:uuid:36ad2032-0307-431e-be03-410e49e859e4"></reference>
            </managingOrganization>
         </Location>
      </resource>
      <request>
         <method value="POST"></method>
         <url value="Location"></url>
         <ifNoneExist value="identifier=http://www.imi-mimic.de/location/Unknown|Unknown"></ifNoneExist>
      </request>
   </entry>
   <entry>
      <fullUrl value="urn:uuid:5fec1d78-9573-420b-8832-93fd321c7ec0"></fullUrl>
      <resource>
         <Encounter xmlns="http://hl7.org/fhir">
            <status value="finished"></status>
            <class>
               <system value="https://www.medizininformatik-initiative.de/fhir/core/CodeSystem/EncounterClassAdditionsDE"></system>
               <code value="_ActEncounterCode"></code>
               <display value="ActEncounterCode"></display>
            </class>
            <period>
               <start value="2128-10-03T00:00:00+00:00"></start>
            </period>
            <location>
               <location>
                  <reference value="urn:uuid:4338d3a9-d48a-46dd-bfd8-6fd8722080b0"></reference>
               </location>
               <status value="completed"></status>
               <physicalType>
                  <coding>
                     <system value="http://terminology.hl7.org/CodeSystem/location-physical-type"></system>
                     <code value="wa"></code>
                     <display value="Ward"></display>
                  </coding>
               </physicalType>
               <period>
                  <start value="2128-10-03T00:00:00+00:00"></start>
               </period>
            </location>
            <serviceProvider>
               <reference value="urn:uuid:36ad2032-0307-431e-be03-410e49e859e4"></reference>
            </serviceProvider>
            <partOf>
               <reference value="urn:uuid:771d9289-5695-45df-9fc9-9cc6b664071e"></reference>
            </partOf>
         </Encounter>
      </resource>
      <request>
         <method value="POST"></method>
         <url value="Encounter"></url>
         <ifNoneExist value="identifier=null|null"></ifNoneExist>
      </request>
   </entry>
   <entry>
      <fullUrl value="urn:uuid:02cc4162-33a3-4ed3-848f-0ebb7ab06076"></fullUrl>
      <resource>
         <Location xmlns="http://hl7.org/fhir">
            <identifier>
               <system value="http://www.imi-mimic.de/location/Emergency_Department"></system>
               <value value="Emergency Department"></value>
            </identifier>
            <name value="Emergency Department"></name>
            <type>
               <coding>
                  <system value="http://terminology.hl7.org/ValueSet/v3-ServiceDeliveryLocationRoleType"></system>
                  <code value="_ServiceDeliveryLocationRoleType"></code>
                  <display value="ServiceDeliveryLocationRoleType"></display>
               </coding>
            </type>
            <physicalType>
               <coding>
                  <system value="http://terminology.hl7.org/CodeSystem/location-physical-type"></system>
                  <code value="wa"></code>
                  <display value="Ward"></display>
               </coding>
            </physicalType>
            <managingOrganization>
               <reference value="urn:uuid:3e5cb101-0673-4bb5-85dd-9e4192001f7c"></reference>
            </managingOrganization>
         </Location>
      </resource>
      <request>
         <method value="POST"></method>
         <url value="Location"></url>
         <ifNoneExist value="identifier=http://www.imi-mimic.de/location/Emergency_Department|Emergency Department"></ifNoneExist>
      </request>
   </entry>
   <entry>
      <fullUrl value="urn:uuid:5f3cfa1e-5c9c-4fb1-90a1-949405776879"></fullUrl>
      <resource>
         <Encounter xmlns="http://hl7.org/fhir">
            <status value="finished"></status>
            <class>
               <system value="https://www.medizininformatik-initiative.de/fhir/core/CodeSystem/EncounterClassAdditionsDE"></system>
               <code value="_ActEncounterCode"></code>
               <display value="ActEncounterCode"></display>
            </class>
            <period>
               <start value="2128-10-01T00:00:00+00:00"></start>
               <end value="2128-10-01T00:00:00+00:00"></end>
            </period>
            <location>
               <location>
                  <reference value="urn:uuid:02cc4162-33a3-4ed3-848f-0ebb7ab06076"></reference>
               </location>
               <status value="completed"></status>
               <physicalType>
                  <coding>
                     <system value="http://terminology.hl7.org/CodeSystem/location-physical-type"></system>
                     <code value="wa"></code>
                     <display value="Ward"></display>
                  </coding>
               </physicalType>
               <period>
                  <start value="2128-10-01T00:00:00+00:00"></start>
                  <end value="2128-10-01T00:00:00+00:00"></end>
               </period>
            </location>
            <serviceProvider>
               <reference value="urn:uuid:3e5cb101-0673-4bb5-85dd-9e4192001f7c"></reference>
            </serviceProvider>
            <partOf>
               <reference value="urn:uuid:771d9289-5695-45df-9fc9-9cc6b664071e"></reference>
            </partOf>
         </Encounter>
      </resource>
      <request>
         <method value="POST"></method>
         <url value="Encounter"></url>
         <ifNoneExist value="identifier=null|null"></ifNoneExist>
      </request>
   </entry>
   <entry>
      <fullUrl value="urn:uuid:771d9289-5695-45df-9fc9-9cc6b664071e"></fullUrl>
      <resource>
         <Encounter xmlns="http://hl7.org/fhir">
            <meta>
               <profile value="https://www.umontreal.ca/fhir/core/modul-fall/StructureDefinition/KontaktGesundheitseinrichtung"></profile>
            </meta>
            <identifier>
               <type>
                  <coding>
                     <system value="http://terminology.hl7.org/CodeSystem/v2-0203"></system>
                     <code value="VN"></code>
                  </coding>
               </type>
               <system value="http://www.umontreal.ca/encs"></system>
               <value value="24053571"></value>
            </identifier>
            <status value="finished"></status>
            <class>
               <system value="https://www.umontreal.ca/fhir/core/ValueSet/EncounterClassDE"></system>
               <code value="E"></code>
               <display value="Notfall"></display>
            </class>
            <period>
               <start value="2128-10-01T00:00:00+00:00"></start>
               <end value="2128-10-03T00:00:00+00:00"></end>
            </period>
            <diagnosis>
               <condition>
                  <reference value="urn:uuid:90403f2d-bfd1-4573-b2ab-aa5f036c968f"></reference>
               </condition>
               <rank value="10"></rank>
            </diagnosis>
            <diagnosis>
               <condition>
                  <reference value="urn:uuid:497623fb-8de4-448d-918b-6c86a451f45a"></reference>
               </condition>
               <rank value="9"></rank>
            </diagnosis>
            <diagnosis>
               <condition>
                  <reference value="urn:uuid:5b8c55ea-90a3-48da-8fee-7a57927da3a5"></reference>
               </condition>
               <rank value="8"></rank>
            </diagnosis>
            <diagnosis>
               <condition>
                  <reference value="urn:uuid:4bfcc8b6-3704-43b0-9d01-0da4a62765e6"></reference>
               </condition>
               <rank value="7"></rank>
            </diagnosis>
            <diagnosis>
               <condition>
                  <reference value="urn:uuid:c65bcfea-660d-44ae-800a-6f9670934bef"></reference>
               </condition>
               <rank value="6"></rank>
            </diagnosis>
            <diagnosis>
               <condition>
                  <reference value="urn:uuid:dc25b0af-7093-4919-96e2-df55f200e9b3"></reference>
               </condition>
               <rank value="5"></rank>
            </diagnosis>
            <diagnosis>
               <condition>
                  <reference value="urn:uuid:b83736fe-d347-4262-a462-1ccfe7944ffa"></reference>
               </condition>
               <rank value="4"></rank>
            </diagnosis>
            <diagnosis>
               <condition>
                  <reference value="urn:uuid:812cc0ca-b4d2-491e-a77b-ad378c56df23"></reference>
               </condition>
               <rank value="4"></rank>
            </diagnosis>
            <diagnosis>
               <condition>
                  <reference value="urn:uuid:727d5db2-c09a-4cc3-8850-54c267510d45"></reference>
               </condition>
               <rank value="3"></rank>
            </diagnosis>
            <diagnosis>
               <condition>
                  <reference value="urn:uuid:2ab481e3-9752-4226-8e46-301fae3d119c"></reference>
               </condition>
               <rank value="2"></rank>
            </diagnosis>
            <diagnosis>
               <condition>
                  <reference value="urn:uuid:2aa3e7b4-78e5-4eee-aabe-51a0538fd032"></reference>
               </condition>
               <rank value="1"></rank>
            </diagnosis>
            <hospitalization>
               <dischargeDisposition>
                  <coding>
                     <system value="https://www.medizininformatik-initiative.de/fhir/core/modul-fall/CodeSystem/Entlassungsgrund"></system>
                     <code value="019"></code>
                     <display value="Behandlung regulaer beendet, keine Angabe"></display>
                  </coding>
               </dischargeDisposition>
            </hospitalization>
         </Encounter>
      </resource>
      <request>
         <method value="POST"></method>
         <url value="Encounter"></url>
         <ifNoneExist value="identifier=http://www.umontreal.ca/encs|24053571"></ifNoneExist>
      </request>
   </entry>
   <entry>
      <fullUrl value="urn:uuid:c47280a7-ab69-4471-9296-0c74e30c9296"></fullUrl>
      <resource>
         <Medication xmlns="http://hl7.org/fhir">
            <text>
               <status value="generated"></status>
            </text>
         </Medication>
      </resource>
      <request>
         <method value="POST"></method>
         <url value="Medication"></url>
         <ifNoneExist value="code=null"></ifNoneExist>
      </request>
   </entry>
   <entry>
      <resource>
         <MedicationAdministration xmlns="http://hl7.org/fhir">
            <meta>
               <profile value="https://www.medizininformatik-initiative.de/fhir/core/modul-medikation/StructureDefinition/MedicationAdministration"></profile>
            </meta>
            <identifier>
               <system value="http://umontreal.ca/prescriptions"></system>
               <value value="24053571_0"></value>
            </identifier>
            <status value="completed"></status>
            <medicationReference>
               <reference value="urn:uuid:c47280a7-ab69-4471-9296-0c74e30c9296"></reference>
            </medicationReference>
            <subject>
               <reference value="10032409"></reference>
            </subject>
            <context>
               <reference value="24053571"></reference>
            </context>
            <effectivePeriod>
               <start value="2128-10-01T00:00:00+00:00"></start>
               <end value="2128-10-03T00:00:00+00:00"></end>
            </effectivePeriod>
         </MedicationAdministration>
      </resource>
      <request>
         <method value="POST"></method>
         <url value="MedicationAdministration"></url>
      </request>
   </entry>
   <entry>
      <resource>
         <MedicationAdministration xmlns="http://hl7.org/fhir">
            <meta>
               <profile value="https://www.medizininformatik-initiative.de/fhir/core/modul-medikation/StructureDefinition/MedicationAdministration"></profile>
            </meta>
            <identifier>
               <system value="http://umontreal.ca/prescriptions"></system>
               <value value="24053571_1"></value>
            </identifier>
            <status value="completed"></status>
            <medicationReference>
               <reference value="urn:uuid:c47280a7-ab69-4471-9296-0c74e30c9296"></reference>
            </medicationReference>
            <subject>
               <reference value="10032409"></reference>
            </subject>
            <context>
               <reference value="24053571"></reference>
            </context>
            <effectivePeriod>
               <start value="2128-10-01T00:00:00+00:00"></start>
               <end value="2128-10-03T00:00:00+00:00"></end>
            </effectivePeriod>
         </MedicationAdministration>
      </resource>
      <request>
         <method value="POST"></method>
         <url value="MedicationAdministration"></url>
      </request>
   </entry>
   <entry>
      <resource>
         <MedicationAdministration xmlns="http://hl7.org/fhir">
            <meta>
               <profile value="https://www.medizininformatik-initiative.de/fhir/core/modul-medikation/StructureDefinition/MedicationAdministration"></profile>
            </meta>
            <identifier>
               <system value="http://umontreal.ca/prescriptions"></system>
               <value value="24053571_2"></value>
            </identifier>
            <status value="completed"></status>
            <medicationReference>
               <reference value="urn:uuid:c47280a7-ab69-4471-9296-0c74e30c9296"></reference>
            </medicationReference>
            <subject>
               <reference value="10032409"></reference>
            </subject>
            <context>
               <reference value="24053571"></reference>
            </context>
            <effectivePeriod>
               <start value="2128-10-02T00:00:00+00:00"></start>
               <end value="2128-10-03T00:00:00+00:00"></end>
            </effectivePeriod>
         </MedicationAdministration>
      </resource>
      <request>
         <method value="POST"></method>
         <url value="MedicationAdministration"></url>
      </request>
   </entry>
   <entry>
      <resource>
         <MedicationAdministration xmlns="http://hl7.org/fhir">
            <meta>
               <profile value="https://www.medizininformatik-initiative.de/fhir/core/modul-medikation/StructureDefinition/MedicationAdministration"></profile>
            </meta>
            <identifier>
               <system value="http://umontreal.ca/prescriptions"></system>
               <value value="24053571_3"></value>
            </identifier>
            <status value="completed"></status>
            <medicationReference>
               <reference value="urn:uuid:c47280a7-ab69-4471-9296-0c74e30c9296"></reference>
            </medicationReference>
            <subject>
               <reference value="10032409"></reference>
            </subject>
            <context>
               <reference value="24053571"></reference>
            </context>
            <effectivePeriod>
               <start value="2128-10-01T00:00:00+00:00"></start>
               <end value="2128-10-03T00:00:00+00:00"></end>
            </effectivePeriod>
         </MedicationAdministration>
      </resource>
      <request>
         <method value="POST"></method>
         <url value="MedicationAdministration"></url>
      </request>
   </entry>
   <entry>
      <resource>
         <MedicationAdministration xmlns="http://hl7.org/fhir">
            <meta>
               <profile value="https://www.medizininformatik-initiative.de/fhir/core/modul-medikation/StructureDefinition/MedicationAdministration"></profile>
            </meta>
            <identifier>
               <system value="http://umontreal.ca/prescriptions"></system>
               <value value="24053571_4"></value>
            </identifier>
            <status value="completed"></status>
            <medicationReference>
               <reference value="urn:uuid:c47280a7-ab69-4471-9296-0c74e30c9296"></reference>
            </medicationReference>
            <subject>
               <reference value="10032409"></reference>
            </subject>
            <context>
               <reference value="24053571"></reference>
            </context>
            <effectivePeriod>
               <start value="2128-10-01T00:00:00+00:00"></start>
               <end value="2128-10-03T00:00:00+00:00"></end>
            </effectivePeriod>
         </MedicationAdministration>
      </resource>
      <request>
         <method value="POST"></method>
         <url value="MedicationAdministration"></url>
      </request>
   </entry>
   <entry>
      <resource>
         <MedicationAdministration xmlns="http://hl7.org/fhir">
            <meta>
               <profile value="https://www.medizininformatik-initiative.de/fhir/core/modul-medikation/StructureDefinition/MedicationAdministration"></profile>
            </meta>
            <identifier>
               <system value="http://umontreal.ca/prescriptions"></system>
               <value value="24053571_5"></value>
            </identifier>
            <status value="completed"></status>
            <medicationReference>
               <reference value="urn:uuid:c47280a7-ab69-4471-9296-0c74e30c9296"></reference>
            </medicationReference>
            <subject>
               <reference value="10032409"></reference>
            </subject>
            <context>
               <reference value="24053571"></reference>
            </context>
            <effectivePeriod>
               <start value="2128-10-01T00:00:00+00:00"></start>
               <end value="2128-10-03T00:00:00+00:00"></end>
            </effectivePeriod>
         </MedicationAdministration>
      </resource>
      <request>
         <method value="POST"></method>
         <url value="MedicationAdministration"></url>
      </request>
   </entry>
   <entry>
      <resource>
         <MedicationAdministration xmlns="http://hl7.org/fhir">
            <meta>
               <profile value="https://www.medizininformatik-initiative.de/fhir/core/modul-medikation/StructureDefinition/MedicationAdministration"></profile>
            </meta>
            <identifier>
               <system value="http://umontreal.ca/prescriptions"></system>
               <value value="24053571_6"></value>
            </identifier>
            <status value="completed"></status>
            <medicationReference>
               <reference value="urn:uuid:c47280a7-ab69-4471-9296-0c74e30c9296"></reference>
            </medicationReference>
            <subject>
               <reference value="10032409"></reference>
            </subject>
            <context>
               <reference value="24053571"></reference>
            </context>
            <effectivePeriod>
               <start value="2128-10-02T00:00:00+00:00"></start>
               <end value="2128-10-03T00:00:00+00:00"></end>
            </effectivePeriod>
         </MedicationAdministration>
      </resource>
      <request>
         <method value="POST"></method>
         <url value="MedicationAdministration"></url>
      </request>
   </entry>
   <entry>
      <resource>
         <MedicationAdministration xmlns="http://hl7.org/fhir">
            <meta>
               <profile value="https://www.medizininformatik-initiative.de/fhir/core/modul-medikation/StructureDefinition/MedicationAdministration"></profile>
            </meta>
            <identifier>
               <system value="http://umontreal.ca/prescriptions"></system>
               <value value="24053571_7"></value>
            </identifier>
            <status value="completed"></status>
            <medicationReference>
               <reference value="urn:uuid:c47280a7-ab69-4471-9296-0c74e30c9296"></reference>
            </medicationReference>
            <subject>
               <reference value="10032409"></reference>
            </subject>
            <context>
               <reference value="24053571"></reference>
            </context>
            <effectivePeriod>
               <start value="2128-10-01T00:00:00+00:00"></start>
               <end value="2128-10-03T00:00:00+00:00"></end>
            </effectivePeriod>
         </MedicationAdministration>
      </resource>
      <request>
         <method value="POST"></method>
         <url value="MedicationAdministration"></url>
      </request>
   </entry>
   <entry>
      <resource>
         <MedicationAdministration xmlns="http://hl7.org/fhir">
            <meta>
               <profile value="https://www.medizininformatik-initiative.de/fhir/core/modul-medikation/StructureDefinition/MedicationAdministration"></profile>
            </meta>
            <identifier>
               <system value="http://umontreal.ca/prescriptions"></system>
               <value value="24053571_8"></value>
            </identifier>
            <status value="completed"></status>
            <medicationReference>
               <reference value="urn:uuid:c47280a7-ab69-4471-9296-0c74e30c9296"></reference>
            </medicationReference>
            <subject>
               <reference value="10032409"></reference>
            </subject>
            <context>
               <reference value="24053571"></reference>
            </context>
            <effectivePeriod>
               <start value="2128-10-01T00:00:00+00:00"></start>
               <end value="2128-10-03T00:00:00+00:00"></end>
            </effectivePeriod>
         </MedicationAdministration>
      </resource>
      <request>
         <method value="POST"></method>
         <url value="MedicationAdministration"></url>
      </request>
   </entry>
   <entry>
      <resource>
         <MedicationAdministration xmlns="http://hl7.org/fhir">
            <meta>
               <profile value="https://www.medizininformatik-initiative.de/fhir/core/modul-medikation/StructureDefinition/MedicationAdministration"></profile>
            </meta>
            <identifier>
               <system value="http://umontreal.ca/prescriptions"></system>
               <value value="24053571_9"></value>
            </identifier>
            <status value="completed"></status>
            <medicationReference>
               <reference value="urn:uuid:c47280a7-ab69-4471-9296-0c74e30c9296"></reference>
            </medicationReference>
            <subject>
               <reference value="10032409"></reference>
            </subject>
            <context>
               <reference value="24053571"></reference>
            </context>
            <effectivePeriod>
               <start value="2128-10-01T00:00:00+00:00"></start>
               <end value="2128-10-03T00:00:00+00:00"></end>
            </effectivePeriod>
         </MedicationAdministration>
      </resource>
      <request>
         <method value="POST"></method>
         <url value="MedicationAdministration"></url>
      </request>
   </entry>
   <entry>
      <resource>
         <MedicationAdministration xmlns="http://hl7.org/fhir">
            <meta>
               <profile value="https://www.medizininformatik-initiative.de/fhir/core/modul-medikation/StructureDefinition/MedicationAdministration"></profile>
            </meta>
            <identifier>
               <system value="http://umontreal.ca/prescriptions"></system>
               <value value="24053571_10"></value>
            </identifier>
            <status value="completed"></status>
            <medicationReference>
               <reference value="urn:uuid:c47280a7-ab69-4471-9296-0c74e30c9296"></reference>
            </medicationReference>
            <subject>
               <reference value="10032409"></reference>
            </subject>
            <context>
               <reference value="24053571"></reference>
            </context>
            <effectivePeriod>
               <start value="2128-10-01T00:00:00+00:00"></start>
               <end value="2128-10-03T00:00:00+00:00"></end>
            </effectivePeriod>
         </MedicationAdministration>
      </resource>
      <request>
         <method value="POST"></method>
         <url value="MedicationAdministration"></url>
      </request>
   </entry>
   <entry>
      <resource>
         <MedicationAdministration xmlns="http://hl7.org/fhir">
            <meta>
               <profile value="https://www.medizininformatik-initiative.de/fhir/core/modul-medikation/StructureDefinition/MedicationAdministration"></profile>
            </meta>
            <identifier>
               <system value="http://umontreal.ca/prescriptions"></system>
               <value value="24053571_11"></value>
            </identifier>
            <status value="completed"></status>
            <medicationReference>
               <reference value="urn:uuid:c47280a7-ab69-4471-9296-0c74e30c9296"></reference>
            </medicationReference>
            <subject>
               <reference value="10032409"></reference>
            </subject>
            <context>
               <reference value="24053571"></reference>
            </context>
            <effectivePeriod>
               <start value="2128-10-01T00:00:00+00:00"></start>
               <end value="2128-10-03T00:00:00+00:00"></end>
            </effectivePeriod>
         </MedicationAdministration>
      </resource>
      <request>
         <method value="POST"></method>
         <url value="MedicationAdministration"></url>
      </request>
   </entry>
   <entry>
      <resource>
         <MedicationAdministration xmlns="http://hl7.org/fhir">
            <meta>
               <profile value="https://www.medizininformatik-initiative.de/fhir/core/modul-medikation/StructureDefinition/MedicationAdministration"></profile>
            </meta>
            <identifier>
               <system value="http://umontreal.ca/prescriptions"></system>
               <value value="24053571_12"></value>
            </identifier>
            <status value="completed"></status>
            <medicationReference>
               <reference value="urn:uuid:c47280a7-ab69-4471-9296-0c74e30c9296"></reference>
            </medicationReference>
            <subject>
               <reference value="10032409"></reference>
            </subject>
            <context>
               <reference value="24053571"></reference>
            </context>
            <effectivePeriod>
               <start value="2128-10-01T00:00:00+00:00"></start>
               <end value="2128-10-03T00:00:00+00:00"></end>
            </effectivePeriod>
         </MedicationAdministration>
      </resource>
      <request>
         <method value="POST"></method>
         <url value="MedicationAdministration"></url>
      </request>
   </entry>
   <entry>
      <resource>
         <MedicationAdministration xmlns="http://hl7.org/fhir">
            <meta>
               <profile value="https://www.medizininformatik-initiative.de/fhir/core/modul-medikation/StructureDefinition/MedicationAdministration"></profile>
            </meta>
            <identifier>
               <system value="http://umontreal.ca/prescriptions"></system>
               <value value="24053571_13"></value>
            </identifier>
            <status value="completed"></status>
            <medicationReference>
               <reference value="urn:uuid:c47280a7-ab69-4471-9296-0c74e30c9296"></reference>
            </medicationReference>
            <subject>
               <reference value="10032409"></reference>
            </subject>
            <context>
               <reference value="24053571"></reference>
            </context>
            <effectivePeriod>
               <start value="2128-10-01T00:00:00+00:00"></start>
               <end value="2128-10-03T00:00:00+00:00"></end>
            </effectivePeriod>
         </MedicationAdministration>
      </resource>
      <request>
         <method value="POST"></method>
         <url value="MedicationAdministration"></url>
      </request>
   </entry>
   <entry>
      <resource>
         <MedicationAdministration xmlns="http://hl7.org/fhir">
            <meta>
               <profile value="https://www.medizininformatik-initiative.de/fhir/core/modul-medikation/StructureDefinition/MedicationAdministration"></profile>
            </meta>
            <identifier>
               <system value="http://umontreal.ca/prescriptions"></system>
               <value value="24053571_14"></value>
            </identifier>
            <status value="completed"></status>
            <medicationReference>
               <reference value="urn:uuid:c47280a7-ab69-4471-9296-0c74e30c9296"></reference>
            </medicationReference>
            <subject>
               <reference value="10032409"></reference>
            </subject>
            <context>
               <reference value="24053571"></reference>
            </context>
            <effectivePeriod>
               <start value="2128-10-01T00:00:00+00:00"></start>
               <end value="2128-10-01T00:00:00+00:00"></end>
            </effectivePeriod>
         </MedicationAdministration>
      </resource>
      <request>
         <method value="POST"></method>
         <url value="MedicationAdministration"></url>
      </request>
   </entry>
   <entry>
      <resource>
         <MedicationAdministration xmlns="http://hl7.org/fhir">
            <meta>
               <profile value="https://www.medizininformatik-initiative.de/fhir/core/modul-medikation/StructureDefinition/MedicationAdministration"></profile>
            </meta>
            <identifier>
               <system value="http://umontreal.ca/prescriptions"></system>
               <value value="24053571_15"></value>
            </identifier>
            <status value="completed"></status>
            <medicationReference>
               <reference value="urn:uuid:c47280a7-ab69-4471-9296-0c74e30c9296"></reference>
            </medicationReference>
            <subject>
               <reference value="10032409"></reference>
            </subject>
            <context>
               <reference value="24053571"></reference>
            </context>
            <effectivePeriod>
               <start value="2128-10-02T00:00:00+00:00"></start>
               <end value="2128-10-03T00:00:00+00:00"></end>
            </effectivePeriod>
         </MedicationAdministration>
      </resource>
      <request>
         <method value="POST"></method>
         <url value="MedicationAdministration"></url>
      </request>
   </entry>
   <entry>
      <resource>
         <MedicationAdministration xmlns="http://hl7.org/fhir">
            <meta>
               <profile value="https://www.medizininformatik-initiative.de/fhir/core/modul-medikation/StructureDefinition/MedicationAdministration"></profile>
            </meta>
            <identifier>
               <system value="http://umontreal.ca/prescriptions"></system>
               <value value="24053571_16"></value>
            </identifier>
            <status value="completed"></status>
            <medicationReference>
               <reference value="urn:uuid:c47280a7-ab69-4471-9296-0c74e30c9296"></reference>
            </medicationReference>
            <subject>
               <reference value="10032409"></reference>
            </subject>
            <context>
               <reference value="24053571"></reference>
            </context>
            <effectivePeriod>
               <start value="2128-10-01T00:00:00+00:00"></start>
               <end value="2128-10-03T00:00:00+00:00"></end>
            </effectivePeriod>
         </MedicationAdministration>
      </resource>
      <request>
         <method value="POST"></method>
         <url value="MedicationAdministration"></url>
      </request>
   </entry>
   <entry>
      <resource>
         <MedicationAdministration xmlns="http://hl7.org/fhir">
            <meta>
               <profile value="https://www.medizininformatik-initiative.de/fhir/core/modul-medikation/StructureDefinition/MedicationAdministration"></profile>
            </meta>
            <identifier>
               <system value="http://umontreal.ca/prescriptions"></system>
               <value value="24053571_17"></value>
            </identifier>
            <status value="completed"></status>
            <medicationReference>
               <reference value="urn:uuid:c47280a7-ab69-4471-9296-0c74e30c9296"></reference>
            </medicationReference>
            <subject>
               <reference value="10032409"></reference>
            </subject>
            <context>
               <reference value="24053571"></reference>
            </context>
            <effectivePeriod>
               <start value="2128-10-02T00:00:00+00:00"></start>
               <end value="2128-10-03T00:00:00+00:00"></end>
            </effectivePeriod>
         </MedicationAdministration>
      </resource>
      <request>
         <method value="POST"></method>
         <url value="MedicationAdministration"></url>
      </request>
   </entry>
   <entry>
      <resource>
         <MedicationAdministration xmlns="http://hl7.org/fhir">
            <meta>
               <profile value="https://www.medizininformatik-initiative.de/fhir/core/modul-medikation/StructureDefinition/MedicationAdministration"></profile>
            </meta>
            <identifier>
               <system value="http://umontreal.ca/prescriptions"></system>
               <value value="24053571_18"></value>
            </identifier>
            <status value="completed"></status>
            <medicationReference>
               <reference value="urn:uuid:c47280a7-ab69-4471-9296-0c74e30c9296"></reference>
            </medicationReference>
            <subject>
               <reference value="10032409"></reference>
            </subject>
            <context>
               <reference value="24053571"></reference>
            </context>
            <effectivePeriod>
               <start value="2128-10-03T00:00:00+00:00"></start>
               <end value="2128-10-03T00:00:00+00:00"></end>
            </effectivePeriod>
         </MedicationAdministration>
      </resource>
      <request>
         <method value="POST"></method>
         <url value="MedicationAdministration"></url>
      </request>
   </entry>
   <entry>
      <resource>
         <MedicationAdministration xmlns="http://hl7.org/fhir">
            <meta>
               <profile value="https://www.medizininformatik-initiative.de/fhir/core/modul-medikation/StructureDefinition/MedicationAdministration"></profile>
            </meta>
            <identifier>
               <system value="http://umontreal.ca/prescriptions"></system>
               <value value="24053571_19"></value>
            </identifier>
            <status value="completed"></status>
            <medicationReference>
               <reference value="urn:uuid:c47280a7-ab69-4471-9296-0c74e30c9296"></reference>
            </medicationReference>
            <subject>
               <reference value="10032409"></reference>
            </subject>
            <context>
               <reference value="24053571"></reference>
            </context>
            <effectivePeriod>
               <start value="2128-10-01T00:00:00+00:00"></start>
               <end value="2128-10-03T00:00:00+00:00"></end>
            </effectivePeriod>
         </MedicationAdministration>
      </resource>
      <request>
         <method value="POST"></method>
         <url value="MedicationAdministration"></url>
      </request>
   </entry>
   <entry>
      <resource>
         <MedicationAdministration xmlns="http://hl7.org/fhir">
            <meta>
               <profile value="https://www.medizininformatik-initiative.de/fhir/core/modul-medikation/StructureDefinition/MedicationAdministration"></profile>
            </meta>
            <identifier>
               <system value="http://umontreal.ca/prescriptions"></system>
               <value value="24053571_20"></value>
            </identifier>
            <status value="completed"></status>
            <medicationReference>
               <reference value="urn:uuid:c47280a7-ab69-4471-9296-0c74e30c9296"></reference>
            </medicationReference>
            <subject>
               <reference value="10032409"></reference>
            </subject>
            <context>
               <reference value="24053571"></reference>
            </context>
            <effectivePeriod>
               <start value="2128-10-01T00:00:00+00:00"></start>
               <end value="2128-10-03T00:00:00+00:00"></end>
            </effectivePeriod>
         </MedicationAdministration>
      </resource>
      <request>
         <method value="POST"></method>
         <url value="MedicationAdministration"></url>
      </request>
   </entry>
   <entry>
      <resource>
         <MedicationAdministration xmlns="http://hl7.org/fhir">
            <meta>
               <profile value="https://www.medizininformatik-initiative.de/fhir/core/modul-medikation/StructureDefinition/MedicationAdministration"></profile>
            </meta>
            <identifier>
               <system value="http://umontreal.ca/prescriptions"></system>
               <value value="24053571_21"></value>
            </identifier>
            <status value="completed"></status>
            <medicationReference>
               <reference value="urn:uuid:c47280a7-ab69-4471-9296-0c74e30c9296"></reference>
            </medicationReference>
            <subject>
               <reference value="10032409"></reference>
            </subject>
            <context>
               <reference value="24053571"></reference>
            </context>
            <effectivePeriod>
               <start value="2128-10-01T00:00:00+00:00"></start>
               <end value="2128-10-03T00:00:00+00:00"></end>
            </effectivePeriod>
         </MedicationAdministration>
      </resource>
      <request>
         <method value="POST"></method>
         <url value="MedicationAdministration"></url>
      </request>
   </entry>
   <entry>
      <resource>
         <MedicationAdministration xmlns="http://hl7.org/fhir">
            <meta>
               <profile value="https://www.medizininformatik-initiative.de/fhir/core/modul-medikation/StructureDefinition/MedicationAdministration"></profile>
            </meta>
            <identifier>
               <system value="http://umontreal.ca/prescriptions"></system>
               <value value="24053571_22"></value>
            </identifier>
            <status value="completed"></status>
            <medicationReference>
               <reference value="urn:uuid:c47280a7-ab69-4471-9296-0c74e30c9296"></reference>
            </medicationReference>
            <subject>
               <reference value="10032409"></reference>
            </subject>
            <context>
               <reference value="24053571"></reference>
            </context>
            <effectivePeriod>
               <start value="2128-10-01T00:00:00+00:00"></start>
               <end value="2128-10-01T00:00:00+00:00"></end>
            </effectivePeriod>
         </MedicationAdministration>
      </resource>
      <request>
         <method value="POST"></method>
         <url value="MedicationAdministration"></url>
      </request>
   </entry>
   <entry>
      <resource>
         <MedicationAdministration xmlns="http://hl7.org/fhir">
            <meta>
               <profile value="https://www.medizininformatik-initiative.de/fhir/core/modul-medikation/StructureDefinition/MedicationAdministration"></profile>
            </meta>
            <identifier>
               <system value="http://umontreal.ca/prescriptions"></system>
               <value value="24053571_23"></value>
            </identifier>
            <status value="completed"></status>
            <medicationReference>
               <reference value="urn:uuid:c47280a7-ab69-4471-9296-0c74e30c9296"></reference>
            </medicationReference>
            <subject>
               <reference value="10032409"></reference>
            </subject>
            <context>
               <reference value="24053571"></reference>
            </context>
            <effectivePeriod>
               <start value="2128-10-01T00:00:00+00:00"></start>
               <end value="2128-10-03T00:00:00+00:00"></end>
            </effectivePeriod>
         </MedicationAdministration>
      </resource>
      <request>
         <method value="POST"></method>
         <url value="MedicationAdministration"></url>
      </request>
   </entry>
   <entry>
      <resource>
         <MedicationAdministration xmlns="http://hl7.org/fhir">
            <meta>
               <profile value="https://www.medizininformatik-initiative.de/fhir/core/modul-medikation/StructureDefinition/MedicationAdministration"></profile>
            </meta>
            <identifier>
               <system value="http://umontreal.ca/prescriptions"></system>
               <value value="24053571_24"></value>
            </identifier>
            <status value="completed"></status>
            <medicationReference>
               <reference value="urn:uuid:c47280a7-ab69-4471-9296-0c74e30c9296"></reference>
            </medicationReference>
            <subject>
               <reference value="10032409"></reference>
            </subject>
            <context>
               <reference value="24053571"></reference>
            </context>
            <effectivePeriod>
               <start value="2128-10-01T00:00:00+00:00"></start>
               <end value="2128-10-03T00:00:00+00:00"></end>
            </effectivePeriod>
         </MedicationAdministration>
      </resource>
      <request>
         <method value="POST"></method>
         <url value="MedicationAdministration"></url>
      </request>
   </entry>
   <entry>
      <resource>
         <MedicationAdministration xmlns="http://hl7.org/fhir">
            <meta>
               <profile value="https://www.medizininformatik-initiative.de/fhir/core/modul-medikation/StructureDefinition/MedicationAdministration"></profile>
            </meta>
            <identifier>
               <system value="http://umontreal.ca/prescriptions"></system>
               <value value="24053571_25"></value>
            </identifier>
            <status value="completed"></status>
            <medicationReference>
               <reference value="urn:uuid:c47280a7-ab69-4471-9296-0c74e30c9296"></reference>
            </medicationReference>
            <subject>
               <reference value="10032409"></reference>
            </subject>
            <context>
               <reference value="24053571"></reference>
            </context>
            <effectivePeriod>
               <start value="2128-10-01T00:00:00+00:00"></start>
               <end value="2128-10-03T00:00:00+00:00"></end>
            </effectivePeriod>
         </MedicationAdministration>
      </resource>
      <request>
         <method value="POST"></method>
         <url value="MedicationAdministration"></url>
      </request>
   </entry>
   <entry>
      <resource>
         <MedicationAdministration xmlns="http://hl7.org/fhir">
            <meta>
               <profile value="https://www.medizininformatik-initiative.de/fhir/core/modul-medikation/StructureDefinition/MedicationAdministration"></profile>
            </meta>
            <identifier>
               <system value="http://umontreal.ca/prescriptions"></system>
               <value value="24053571_26"></value>
            </identifier>
            <status value="completed"></status>
            <medicationReference>
               <reference value="urn:uuid:c47280a7-ab69-4471-9296-0c74e30c9296"></reference>
            </medicationReference>
            <subject>
               <reference value="10032409"></reference>
            </subject>
            <context>
               <reference value="24053571"></reference>
            </context>
            <effectivePeriod>
               <start value="2128-10-01T00:00:00+00:00"></start>
               <end value="2128-10-01T00:00:00+00:00"></end>
            </effectivePeriod>
         </MedicationAdministration>
      </resource>
      <request>
         <method value="POST"></method>
         <url value="MedicationAdministration"></url>
      </request>
   </entry>
   <entry>
      <resource>
         <MedicationAdministration xmlns="http://hl7.org/fhir">
            <meta>
               <profile value="https://www.medizininformatik-initiative.de/fhir/core/modul-medikation/StructureDefinition/MedicationAdministration"></profile>
            </meta>
            <identifier>
               <system value="http://umontreal.ca/prescriptions"></system>
               <value value="24053571_27"></value>
            </identifier>
            <status value="completed"></status>
            <medicationReference>
               <reference value="urn:uuid:c47280a7-ab69-4471-9296-0c74e30c9296"></reference>
            </medicationReference>
            <subject>
               <reference value="10032409"></reference>
            </subject>
            <context>
               <reference value="24053571"></reference>
            </context>
            <effectivePeriod>
               <start value="2128-10-01T00:00:00+00:00"></start>
               <end value="2128-10-03T00:00:00+00:00"></end>
            </effectivePeriod>
         </MedicationAdministration>
      </resource>
      <request>
         <method value="POST"></method>
         <url value="MedicationAdministration"></url>
      </request>
   </entry>
   <entry>
      <resource>
         <MedicationAdministration xmlns="http://hl7.org/fhir">
            <meta>
               <profile value="https://www.medizininformatik-initiative.de/fhir/core/modul-medikation/StructureDefinition/MedicationAdministration"></profile>
            </meta>
            <identifier>
               <system value="http://umontreal.ca/prescriptions"></system>
               <value value="24053571_28"></value>
            </identifier>
            <status value="completed"></status>
            <medicationReference>
               <reference value="urn:uuid:c47280a7-ab69-4471-9296-0c74e30c9296"></reference>
            </medicationReference>
            <subject>
               <reference value="10032409"></reference>
            </subject>
            <context>
               <reference value="24053571"></reference>
            </context>
            <effectivePeriod>
               <start value="2128-10-03T00:00:00+00:00"></start>
               <end value="2128-10-03T00:00:00+00:00"></end>
            </effectivePeriod>
         </MedicationAdministration>
      </resource>
      <request>
         <method value="POST"></method>
         <url value="MedicationAdministration"></url>
      </request>
   </entry>
   <entry>
      <resource>
         <MedicationAdministration xmlns="http://hl7.org/fhir">
            <meta>
               <profile value="https://www.medizininformatik-initiative.de/fhir/core/modul-medikation/StructureDefinition/MedicationAdministration"></profile>
            </meta>
            <identifier>
               <system value="http://umontreal.ca/prescriptions"></system>
               <value value="24053571_29"></value>
            </identifier>
            <status value="completed"></status>
            <medicationReference>
               <reference value="urn:uuid:c47280a7-ab69-4471-9296-0c74e30c9296"></reference>
            </medicationReference>
            <subject>
               <reference value="10032409"></reference>
            </subject>
            <context>
               <reference value="24053571"></reference>
            </context>
            <effectivePeriod>
               <start value="2128-10-01T00:00:00+00:00"></start>
               <end value="2128-10-02T00:00:00+00:00"></end>
            </effectivePeriod>
         </MedicationAdministration>
      </resource>
      <request>
         <method value="POST"></method>
         <url value="MedicationAdministration"></url>
      </request>
   </entry>
   <entry>
      <resource>
         <MedicationAdministration xmlns="http://hl7.org/fhir">
            <meta>
               <profile value="https://www.medizininformatik-initiative.de/fhir/core/modul-medikation/StructureDefinition/MedicationAdministration"></profile>
            </meta>
            <identifier>
               <system value="http://umontreal.ca/prescriptions"></system>
               <value value="24053571_30"></value>
            </identifier>
            <status value="completed"></status>
            <medicationReference>
               <reference value="urn:uuid:c47280a7-ab69-4471-9296-0c74e30c9296"></reference>
            </medicationReference>
            <subject>
               <reference value="10032409"></reference>
            </subject>
            <context>
               <reference value="24053571"></reference>
            </context>
            <effectivePeriod>
               <start value="2128-10-01T00:00:00+00:00"></start>
               <end value="2128-10-03T00:00:00+00:00"></end>
            </effectivePeriod>
         </MedicationAdministration>
      </resource>
      <request>
         <method value="POST"></method>
         <url value="MedicationAdministration"></url>
      </request>
   </entry>
   <entry>
      <resource>
         <Observation xmlns="http://hl7.org/fhir">
            <meta>
               <profile value="https://www.umontreal.ca/fhir/core/modul-labor/StructureDefinition/ObservationLab"></profile>
            </meta>
            <identifier>
               <use value="usual"></use>
               <type>
                  <coding>
                     <system value="http://terminology.hl7.org/CodeSystem/v2-0203"></system>
                     <code value="OBI"></code>
                     <display value="Optometrist license number"></display>
                  </coding>
               </type>
               <system value="http://www.umontreal.ca/labevents"></system>
               <value value="377571"></value>
               <assigner>
                  <reference value="10032409"></reference>
               </assigner>
            </identifier>
            <partOf>
               <reference value="24053571"></reference>
            </partOf>
            <status value="final"></status>
            <code>
               <text value="Hematocrit"></text>
            </code>
            <subject>
               <reference value="10032409"></reference>
            </subject>
            <effectiveDateTime value="2128-10-02T00:00:00+00:00"></effectiveDateTime>
            <valueQuantity>
               <value value="36.1"></value>
               <unit value="%"></unit>
            </valueQuantity>
         </Observation>
      </resource>
      <request>
         <method value="POST"></method>
         <url value="Observation"></url>
      </request>
   </entry>
   <entry>
      <resource>
         <Observation xmlns="http://hl7.org/fhir">
            <meta>
               <profile value="https://www.umontreal.ca/fhir/core/modul-labor/StructureDefinition/ObservationLab"></profile>
            </meta>
            <identifier>
               <use value="usual"></use>
               <type>
                  <coding>
                     <system value="http://terminology.hl7.org/CodeSystem/v2-0203"></system>
                     <code value="OBI"></code>
                     <display value="Optometrist license number"></display>
                  </coding>
               </type>
               <system value="http://www.umontreal.ca/labevents"></system>
               <value value="377572"></value>
               <assigner>
                  <reference value="10032409"></reference>
               </assigner>
            </identifier>
            <partOf>
               <reference value="24053571"></reference>
            </partOf>
            <status value="final"></status>
            <code>
               <text value="Hemoglobin"></text>
            </code>
            <subject>
               <reference value="10032409"></reference>
            </subject>
            <effectiveDateTime value="2128-10-02T00:00:00+00:00"></effectiveDateTime>
            <valueQuantity>
               <value value="11.3"></value>
               <unit value="g/dL"></unit>
            </valueQuantity>
         </Observation>
      </resource>
      <request>
         <method value="POST"></method>
         <url value="Observation"></url>
      </request>
   </entry>
   <entry>
      <resource>
         <Observation xmlns="http://hl7.org/fhir">
            <meta>
               <profile value="https://www.umontreal.ca/fhir/core/modul-labor/StructureDefinition/ObservationLab"></profile>
            </meta>
            <identifier>
               <use value="usual"></use>
               <type>
                  <coding>
                     <system value="http://terminology.hl7.org/CodeSystem/v2-0203"></system>
                     <code value="OBI"></code>
                     <display value="Optometrist license number"></display>
                  </coding>
               </type>
               <system value="http://www.umontreal.ca/labevents"></system>
               <value value="377573"></value>
               <assigner>
                  <reference value="10032409"></reference>
               </assigner>
            </identifier>
            <partOf>
               <reference value="24053571"></reference>
            </partOf>
            <status value="final"></status>
            <code>
               <text value="MCH"></text>
            </code>
            <subject>
               <reference value="10032409"></reference>
            </subject>
            <effectiveDateTime value="2128-10-02T00:00:00+00:00"></effectiveDateTime>
            <valueQuantity>
               <value value="26.3"></value>
               <unit value="pg"></unit>
            </valueQuantity>
         </Observation>
      </resource>
      <request>
         <method value="POST"></method>
         <url value="Observation"></url>
      </request>
   </entry>
   <entry>
      <resource>
         <Observation xmlns="http://hl7.org/fhir">
            <meta>
               <profile value="https://www.umontreal.ca/fhir/core/modul-labor/StructureDefinition/ObservationLab"></profile>
            </meta>
            <identifier>
               <use value="usual"></use>
               <type>
                  <coding>
                     <system value="http://terminology.hl7.org/CodeSystem/v2-0203"></system>
                     <code value="OBI"></code>
                     <display value="Optometrist license number"></display>
                  </coding>
               </type>
               <system value="http://www.umontreal.ca/labevents"></system>
               <value value="377574"></value>
               <assigner>
                  <reference value="10032409"></reference>
               </assigner>
            </identifier>
            <partOf>
               <reference value="24053571"></reference>
            </partOf>
            <status value="final"></status>
            <code>
               <text value="MCHC"></text>
            </code>
            <subject>
               <reference value="10032409"></reference>
            </subject>
            <effectiveDateTime value="2128-10-02T00:00:00+00:00"></effectiveDateTime>
            <valueQuantity>
               <value value="31.2"></value>
               <unit value="%"></unit>
            </valueQuantity>
         </Observation>
      </resource>
      <request>
         <method value="POST"></method>
         <url value="Observation"></url>
      </request>
   </entry>
   <entry>
      <resource>
         <Observation xmlns="http://hl7.org/fhir">
            <meta>
               <profile value="https://www.umontreal.ca/fhir/core/modul-labor/StructureDefinition/ObservationLab"></profile>
            </meta>
            <identifier>
               <use value="usual"></use>
               <type>
                  <coding>
                     <system value="http://terminology.hl7.org/CodeSystem/v2-0203"></system>
                     <code value="OBI"></code>
                     <display value="Optometrist license number"></display>
                  </coding>
               </type>
               <system value="http://www.umontreal.ca/labevents"></system>
               <value value="377575"></value>
               <assigner>
                  <reference value="10032409"></reference>
               </assigner>
            </identifier>
            <partOf>
               <reference value="24053571"></reference>
            </partOf>
            <status value="final"></status>
            <code>
               <text value="MCV"></text>
            </code>
            <subject>
               <reference value="10032409"></reference>
            </subject>
            <effectiveDateTime value="2128-10-02T00:00:00+00:00"></effectiveDateTime>
            <valueQuantity>
               <value value="84.0"></value>
               <unit value="fL"></unit>
            </valueQuantity>
         </Observation>
      </resource>
      <request>
         <method value="POST"></method>
         <url value="Observation"></url>
      </request>
   </entry>
   <entry>
      <resource>
         <Observation xmlns="http://hl7.org/fhir">
            <meta>
               <profile value="https://www.umontreal.ca/fhir/core/modul-labor/StructureDefinition/ObservationLab"></profile>
            </meta>
            <identifier>
               <use value="usual"></use>
               <type>
                  <coding>
                     <system value="http://terminology.hl7.org/CodeSystem/v2-0203"></system>
                     <code value="OBI"></code>
                     <display value="Optometrist license number"></display>
                  </coding>
               </type>
               <system value="http://www.umontreal.ca/labevents"></system>
               <value value="377576"></value>
               <assigner>
                  <reference value="10032409"></reference>
               </assigner>
            </identifier>
            <partOf>
               <reference value="24053571"></reference>
            </partOf>
            <status value="final"></status>
            <code>
               <text value="Platelet Count"></text>
            </code>
            <subject>
               <reference value="10032409"></reference>
            </subject>
            <effectiveDateTime value="2128-10-02T00:00:00+00:00"></effectiveDateTime>
            <valueQuantity>
               <value value="211.0"></value>
               <unit value="K/uL"></unit>
            </valueQuantity>
         </Observation>
      </resource>
      <request>
         <method value="POST"></method>
         <url value="Observation"></url>
      </request>
   </entry>
   <entry>
      <resource>
         <Observation xmlns="http://hl7.org/fhir">
            <meta>
               <profile value="https://www.umontreal.ca/fhir/core/modul-labor/StructureDefinition/ObservationLab"></profile>
            </meta>
            <identifier>
               <use value="usual"></use>
               <type>
                  <coding>
                     <system value="http://terminology.hl7.org/CodeSystem/v2-0203"></system>
                     <code value="OBI"></code>
                     <display value="Optometrist license number"></display>
                  </coding>
               </type>
               <system value="http://www.umontreal.ca/labevents"></system>
               <value value="377577"></value>
               <assigner>
                  <reference value="10032409"></reference>
               </assigner>
            </identifier>
            <partOf>
               <reference value="24053571"></reference>
            </partOf>
            <status value="final"></status>
            <code>
               <text value="RDW"></text>
            </code>
            <subject>
               <reference value="10032409"></reference>
            </subject>
            <effectiveDateTime value="2128-10-02T00:00:00+00:00"></effectiveDateTime>
            <valueQuantity>
               <value value="17.2"></value>
               <unit value="%"></unit>
            </valueQuantity>
         </Observation>
      </resource>
      <request>
         <method value="POST"></method>
         <url value="Observation"></url>
      </request>
   </entry>
   <entry>
      <resource>
         <Observation xmlns="http://hl7.org/fhir">
            <meta>
               <profile value="https://www.umontreal.ca/fhir/core/modul-labor/StructureDefinition/ObservationLab"></profile>
            </meta>
            <identifier>
               <use value="usual"></use>
               <type>
                  <coding>
                     <system value="http://terminology.hl7.org/CodeSystem/v2-0203"></system>
                     <code value="OBI"></code>
                     <display value="Optometrist license number"></display>
                  </coding>
               </type>
               <system value="http://www.umontreal.ca/labevents"></system>
               <value value="377578"></value>
               <assigner>
                  <reference value="10032409"></reference>
               </assigner>
            </identifier>
            <partOf>
               <reference value="24053571"></reference>
            </partOf>
            <status value="final"></status>
            <code>
               <text value="Red Blood Cells"></text>
            </code>
            <subject>
               <reference value="10032409"></reference>
            </subject>
            <effectiveDateTime value="2128-10-02T00:00:00+00:00"></effectiveDateTime>
            <valueQuantity>
               <value value="4.29"></value>
               <unit value="m/uL"></unit>
            </valueQuantity>
         </Observation>
      </resource>
      <request>
         <method value="POST"></method>
         <url value="Observation"></url>
      </request>
   </entry>
   <entry>
      <resource>
         <Observation xmlns="http://hl7.org/fhir">
            <meta>
               <profile value="https://www.umontreal.ca/fhir/core/modul-labor/StructureDefinition/ObservationLab"></profile>
            </meta>
            <identifier>
               <use value="usual"></use>
               <type>
                  <coding>
                     <system value="http://terminology.hl7.org/CodeSystem/v2-0203"></system>
                     <code value="OBI"></code>
                     <display value="Optometrist license number"></display>
                  </coding>
               </type>
               <system value="http://www.umontreal.ca/labevents"></system>
               <value value="377579"></value>
               <assigner>
                  <reference value="10032409"></reference>
               </assigner>
            </identifier>
            <partOf>
               <reference value="24053571"></reference>
            </partOf>
            <status value="final"></status>
            <code>
               <text value="White Blood Cells"></text>
            </code>
            <subject>
               <reference value="10032409"></reference>
            </subject>
            <effectiveDateTime value="2128-10-02T00:00:00+00:00"></effectiveDateTime>
            <valueQuantity>
               <value value="8.8"></value>
               <unit value="K/uL"></unit>
            </valueQuantity>
         </Observation>
      </resource>
      <request>
         <method value="POST"></method>
         <url value="Observation"></url>
      </request>
   </entry>
   <entry>
      <resource>
         <Observation xmlns="http://hl7.org/fhir">
            <meta>
               <profile value="https://www.umontreal.ca/fhir/core/modul-labor/StructureDefinition/ObservationLab"></profile>
            </meta>
            <identifier>
               <use value="usual"></use>
               <type>
                  <coding>
                     <system value="http://terminology.hl7.org/CodeSystem/v2-0203"></system>
                     <code value="OBI"></code>
                     <display value="Optometrist license number"></display>
                  </coding>
               </type>
               <system value="http://www.umontreal.ca/labevents"></system>
               <value value="377580"></value>
               <assigner>
                  <reference value="10032409"></reference>
               </assigner>
            </identifier>
            <partOf>
               <reference value="24053571"></reference>
            </partOf>
            <status value="final"></status>
            <code>
               <text value="Anion Gap"></text>
            </code>
            <subject>
               <reference value="10032409"></reference>
            </subject>
            <effectiveDateTime value="2128-10-02T00:00:00+00:00"></effectiveDateTime>
            <valueQuantity>
               <value value="11.0"></value>
               <unit value="mEq/L"></unit>
            </valueQuantity>
         </Observation>
      </resource>
      <request>
         <method value="POST"></method>
         <url value="Observation"></url>
      </request>
   </entry>
   <entry>
      <resource>
         <Observation xmlns="http://hl7.org/fhir">
            <meta>
               <profile value="https://www.umontreal.ca/fhir/core/modul-labor/StructureDefinition/ObservationLab"></profile>
            </meta>
            <identifier>
               <use value="usual"></use>
               <type>
                  <coding>
                     <system value="http://terminology.hl7.org/CodeSystem/v2-0203"></system>
                     <code value="OBI"></code>
                     <display value="Optometrist license number"></display>
                  </coding>
               </type>
               <system value="http://www.umontreal.ca/labevents"></system>
               <value value="377581"></value>
               <assigner>
                  <reference value="10032409"></reference>
               </assigner>
            </identifier>
            <partOf>
               <reference value="24053571"></reference>
            </partOf>
            <status value="final"></status>
            <code>
               <text value="Bicarbonate"></text>
            </code>
            <subject>
               <reference value="10032409"></reference>
            </subject>
            <effectiveDateTime value="2128-10-02T00:00:00+00:00"></effectiveDateTime>
            <valueQuantity>
               <value value="32.0"></value>
               <unit value="mEq/L"></unit>
            </valueQuantity>
         </Observation>
      </resource>
      <request>
         <method value="POST"></method>
         <url value="Observation"></url>
      </request>
   </entry>
   <entry>
      <resource>
         <Observation xmlns="http://hl7.org/fhir">
            <meta>
               <profile value="https://www.umontreal.ca/fhir/core/modul-labor/StructureDefinition/ObservationLab"></profile>
            </meta>
            <identifier>
               <use value="usual"></use>
               <type>
                  <coding>
                     <system value="http://terminology.hl7.org/CodeSystem/v2-0203"></system>
                     <code value="OBI"></code>
                     <display value="Optometrist license number"></display>
                  </coding>
               </type>
               <system value="http://www.umontreal.ca/labevents"></system>
               <value value="377582"></value>
               <assigner>
                  <reference value="10032409"></reference>
               </assigner>
            </identifier>
            <partOf>
               <reference value="24053571"></reference>
            </partOf>
            <status value="final"></status>
            <code>
               <text value="Chloride"></text>
            </code>
            <subject>
               <reference value="10032409"></reference>
            </subject>
            <effectiveDateTime value="2128-10-02T00:00:00+00:00"></effectiveDateTime>
            <valueQuantity>
               <value value="104.0"></value>
               <unit value="mEq/L"></unit>
            </valueQuantity>
         </Observation>
      </resource>
      <request>
         <method value="POST"></method>
         <url value="Observation"></url>
      </request>
   </entry>
   <entry>
      <resource>
         <Observation xmlns="http://hl7.org/fhir">
            <meta>
               <profile value="https://www.umontreal.ca/fhir/core/modul-labor/StructureDefinition/ObservationLab"></profile>
            </meta>
            <identifier>
               <use value="usual"></use>
               <type>
                  <coding>
                     <system value="http://terminology.hl7.org/CodeSystem/v2-0203"></system>
                     <code value="OBI"></code>
                     <display value="Optometrist license number"></display>
                  </coding>
               </type>
               <system value="http://www.umontreal.ca/labevents"></system>
               <value value="377583"></value>
               <assigner>
                  <reference value="10032409"></reference>
               </assigner>
            </identifier>
            <partOf>
               <reference value="24053571"></reference>
            </partOf>
            <status value="final"></status>
            <code>
               <text value="Creatinine"></text>
            </code>
            <subject>
               <reference value="10032409"></reference>
            </subject>
            <effectiveDateTime value="2128-10-02T00:00:00+00:00"></effectiveDateTime>
            <valueQuantity>
               <value value="0.7"></value>
               <unit value="mg/dL"></unit>
            </valueQuantity>
         </Observation>
      </resource>
      <request>
         <method value="POST"></method>
         <url value="Observation"></url>
      </request>
   </entry>
   <entry>
      <resource>
         <Observation xmlns="http://hl7.org/fhir">
            <meta>
               <profile value="https://www.umontreal.ca/fhir/core/modul-labor/StructureDefinition/ObservationLab"></profile>
            </meta>
            <identifier>
               <use value="usual"></use>
               <type>
                  <coding>
                     <system value="http://terminology.hl7.org/CodeSystem/v2-0203"></system>
                     <code value="OBI"></code>
                     <display value="Optometrist license number"></display>
                  </coding>
               </type>
               <system value="http://www.umontreal.ca/labevents"></system>
               <value value="377584"></value>
               <assigner>
                  <reference value="10032409"></reference>
               </assigner>
            </identifier>
            <partOf>
               <reference value="24053571"></reference>
            </partOf>
            <status value="final"></status>
            <code>
               <text value="Glucose"></text>
            </code>
            <subject>
               <reference value="10032409"></reference>
            </subject>
            <effectiveDateTime value="2128-10-02T00:00:00+00:00"></effectiveDateTime>
            <valueQuantity>
               <value value="104.0"></value>
               <unit value="mg/dL"></unit>
            </valueQuantity>
            <note>
               <text value="IF FASTING, 70-100 NORMAL, &gt;125 PROVISIONAL DIABETES."></text>
            </note>
         </Observation>
      </resource>
      <request>
         <method value="POST"></method>
         <url value="Observation"></url>
      </request>
   </entry>
   <entry>
      <resource>
         <Observation xmlns="http://hl7.org/fhir">
            <meta>
               <profile value="https://www.umontreal.ca/fhir/core/modul-labor/StructureDefinition/ObservationLab"></profile>
            </meta>
            <identifier>
               <use value="usual"></use>
               <type>
                  <coding>
                     <system value="http://terminology.hl7.org/CodeSystem/v2-0203"></system>
                     <code value="OBI"></code>
                     <display value="Optometrist license number"></display>
                  </coding>
               </type>
               <system value="http://www.umontreal.ca/labevents"></system>
               <value value="377585"></value>
               <assigner>
                  <reference value="10032409"></reference>
               </assigner>
            </identifier>
            <partOf>
               <reference value="24053571"></reference>
            </partOf>
            <status value="final"></status>
            <code>
               <text value="Potassium"></text>
            </code>
            <subject>
               <reference value="10032409"></reference>
            </subject>
            <effectiveDateTime value="2128-10-02T00:00:00+00:00"></effectiveDateTime>
            <valueQuantity>
               <value value="4.2"></value>
               <unit value="mEq/L"></unit>
            </valueQuantity>
         </Observation>
      </resource>
      <request>
         <method value="POST"></method>
         <url value="Observation"></url>
      </request>
   </entry>
   <entry>
      <resource>
         <Observation xmlns="http://hl7.org/fhir">
            <meta>
               <profile value="https://www.umontreal.ca/fhir/core/modul-labor/StructureDefinition/ObservationLab"></profile>
            </meta>
            <identifier>
               <use value="usual"></use>
               <type>
                  <coding>
                     <system value="http://terminology.hl7.org/CodeSystem/v2-0203"></system>
                     <code value="OBI"></code>
                     <display value="Optometrist license number"></display>
                  </coding>
               </type>
               <system value="http://www.umontreal.ca/labevents"></system>
               <value value="377586"></value>
               <assigner>
                  <reference value="10032409"></reference>
               </assigner>
            </identifier>
            <partOf>
               <reference value="24053571"></reference>
            </partOf>
            <status value="final"></status>
            <code>
               <text value="Sodium"></text>
            </code>
            <subject>
               <reference value="10032409"></reference>
            </subject>
            <effectiveDateTime value="2128-10-02T00:00:00+00:00"></effectiveDateTime>
            <valueQuantity>
               <value value="143.0"></value>
               <unit value="mEq/L"></unit>
            </valueQuantity>
         </Observation>
      </resource>
      <request>
         <method value="POST"></method>
         <url value="Observation"></url>
      </request>
   </entry>
   <entry>
      <resource>
         <Observation xmlns="http://hl7.org/fhir">
            <meta>
               <profile value="https://www.umontreal.ca/fhir/core/modul-labor/StructureDefinition/ObservationLab"></profile>
            </meta>
            <identifier>
               <use value="usual"></use>
               <type>
                  <coding>
                     <system value="http://terminology.hl7.org/CodeSystem/v2-0203"></system>
                     <code value="OBI"></code>
                     <display value="Optometrist license number"></display>
                  </coding>
               </type>
               <system value="http://www.umontreal.ca/labevents"></system>
               <value value="377587"></value>
               <assigner>
                  <reference value="10032409"></reference>
               </assigner>
            </identifier>
            <partOf>
               <reference value="24053571"></reference>
            </partOf>
            <status value="final"></status>
            <code>
               <text value="Urea Nitrogen"></text>
            </code>
            <subject>
               <reference value="10032409"></reference>
            </subject>
            <effectiveDateTime value="2128-10-02T00:00:00+00:00"></effectiveDateTime>
            <valueQuantity>
               <value value="12.0"></value>
               <unit value="mg/dL"></unit>
            </valueQuantity>
         </Observation>
      </resource>
      <request>
         <method value="POST"></method>
         <url value="Observation"></url>
      </request>
   </entry>
   <entry>
      <resource>
         <Observation xmlns="http://hl7.org/fhir">
            <meta>
               <profile value="https://www.umontreal.ca/fhir/core/modul-labor/StructureDefinition/ObservationLab"></profile>
            </meta>
            <identifier>
               <use value="usual"></use>
               <type>
                  <coding>
                     <system value="http://terminology.hl7.org/CodeSystem/v2-0203"></system>
                     <code value="OBI"></code>
                     <display value="Optometrist license number"></display>
                  </coding>
               </type>
               <system value="http://www.umontreal.ca/labevents"></system>
               <value value="377588"></value>
               <assigner>
                  <reference value="10032409"></reference>
               </assigner>
            </identifier>
            <partOf>
               <reference value="24053571"></reference>
            </partOf>
            <status value="final"></status>
            <code>
               <text value="% Hemoglobin A1c"></text>
            </code>
            <subject>
               <reference value="10032409"></reference>
            </subject>
            <effectiveDateTime value="2128-10-02T00:00:00+00:00"></effectiveDateTime>
            <valueQuantity>
               <value value="8.3"></value>
               <unit value="%"></unit>
            </valueQuantity>
            <note>
               <text value="ADA RECOMMENDATIONS:;  &lt;7%  GOAL OF THERAPY;  &gt;8%  WARRANTS THERAPEUTIC ACTION."></text>
            </note>
         </Observation>
      </resource>
      <request>
         <method value="POST"></method>
         <url value="Observation"></url>
      </request>
   </entry>
   <entry>
      <resource>
         <Observation xmlns="http://hl7.org/fhir">
            <meta>
               <profile value="https://www.umontreal.ca/fhir/core/modul-labor/StructureDefinition/ObservationLab"></profile>
            </meta>
            <identifier>
               <use value="usual"></use>
               <type>
                  <coding>
                     <system value="http://terminology.hl7.org/CodeSystem/v2-0203"></system>
                     <code value="OBI"></code>
                     <display value="Optometrist license number"></display>
                  </coding>
               </type>
               <system value="http://www.umontreal.ca/labevents"></system>
               <value value="377589"></value>
               <assigner>
                  <reference value="10032409"></reference>
               </assigner>
            </identifier>
            <partOf>
               <reference value="24053571"></reference>
            </partOf>
            <status value="final"></status>
            <code>
               <text value="eAG"></text>
            </code>
            <subject>
               <reference value="10032409"></reference>
            </subject>
            <effectiveDateTime value="2128-10-02T00:00:00+00:00"></effectiveDateTime>
            <valueQuantity>
               <value value="192.0"></value>
               <unit value="mg/dL"></unit>
            </valueQuantity>
            <note>
               <text value="___"></text>
            </note>
         </Observation>
      </resource>
      <request>
         <method value="POST"></method>
         <url value="Observation"></url>
      </request>
   </entry>
   <entry>
      <resource>
         <Observation xmlns="http://hl7.org/fhir">
            <meta>
               <profile value="https://www.umontreal.ca/fhir/core/modul-labor/StructureDefinition/ObservationLab"></profile>
            </meta>
            <identifier>
               <use value="usual"></use>
               <type>
                  <coding>
                     <system value="http://terminology.hl7.org/CodeSystem/v2-0203"></system>
                     <code value="OBI"></code>
                     <display value="Optometrist license number"></display>
                  </coding>
               </type>
               <system value="http://www.umontreal.ca/labevents"></system>
               <value value="377590"></value>
               <assigner>
                  <reference value="10032409"></reference>
               </assigner>
            </identifier>
            <partOf>
               <reference value="24053571"></reference>
            </partOf>
            <status value="final"></status>
            <code>
               <text value="Hematocrit"></text>
            </code>
            <subject>
               <reference value="10032409"></reference>
            </subject>
            <effectiveDateTime value="2128-10-03T00:00:00+00:00"></effectiveDateTime>
            <valueQuantity>
               <value value="36.5"></value>
               <unit value="%"></unit>
            </valueQuantity>
         </Observation>
      </resource>
      <request>
         <method value="POST"></method>
         <url value="Observation"></url>
      </request>
   </entry>
   <entry>
      <resource>
         <Observation xmlns="http://hl7.org/fhir">
            <meta>
               <profile value="https://www.umontreal.ca/fhir/core/modul-labor/StructureDefinition/ObservationLab"></profile>
            </meta>
            <identifier>
               <use value="usual"></use>
               <type>
                  <coding>
                     <system value="http://terminology.hl7.org/CodeSystem/v2-0203"></system>
                     <code value="OBI"></code>
                     <display value="Optometrist license number"></display>
                  </coding>
               </type>
               <system value="http://www.umontreal.ca/labevents"></system>
               <value value="377591"></value>
               <assigner>
                  <reference value="10032409"></reference>
               </assigner>
            </identifier>
            <partOf>
               <reference value="24053571"></reference>
            </partOf>
            <status value="final"></status>
            <code>
               <text value="Hemoglobin"></text>
            </code>
            <subject>
               <reference value="10032409"></reference>
            </subject>
            <effectiveDateTime value="2128-10-03T00:00:00+00:00"></effectiveDateTime>
            <valueQuantity>
               <value value="11.5"></value>
               <unit value="g/dL"></unit>
            </valueQuantity>
         </Observation>
      </resource>
      <request>
         <method value="POST"></method>
         <url value="Observation"></url>
      </request>
   </entry>
   <entry>
      <resource>
         <Observation xmlns="http://hl7.org/fhir">
            <meta>
               <profile value="https://www.umontreal.ca/fhir/core/modul-labor/StructureDefinition/ObservationLab"></profile>
            </meta>
            <identifier>
               <use value="usual"></use>
               <type>
                  <coding>
                     <system value="http://terminology.hl7.org/CodeSystem/v2-0203"></system>
                     <code value="OBI"></code>
                     <display value="Optometrist license number"></display>
                  </coding>
               </type>
               <system value="http://www.umontreal.ca/labevents"></system>
               <value value="377592"></value>
               <assigner>
                  <reference value="10032409"></reference>
               </assigner>
            </identifier>
            <partOf>
               <reference value="24053571"></reference>
            </partOf>
            <status value="final"></status>
            <code>
               <text value="MCH"></text>
            </code>
            <subject>
               <reference value="10032409"></reference>
            </subject>
            <effectiveDateTime value="2128-10-03T00:00:00+00:00"></effectiveDateTime>
            <valueQuantity>
               <value value="25.9"></value>
               <unit value="pg"></unit>
            </valueQuantity>
         </Observation>
      </resource>
      <request>
         <method value="POST"></method>
         <url value="Observation"></url>
      </request>
   </entry>
   <entry>
      <resource>
         <Observation xmlns="http://hl7.org/fhir">
            <meta>
               <profile value="https://www.umontreal.ca/fhir/core/modul-labor/StructureDefinition/ObservationLab"></profile>
            </meta>
            <identifier>
               <use value="usual"></use>
               <type>
                  <coding>
                     <system value="http://terminology.hl7.org/CodeSystem/v2-0203"></system>
                     <code value="OBI"></code>
                     <display value="Optometrist license number"></display>
                  </coding>
               </type>
               <system value="http://www.umontreal.ca/labevents"></system>
               <value value="377593"></value>
               <assigner>
                  <reference value="10032409"></reference>
               </assigner>
            </identifier>
            <partOf>
               <reference value="24053571"></reference>
            </partOf>
            <status value="final"></status>
            <code>
               <text value="MCHC"></text>
            </code>
            <subject>
               <reference value="10032409"></reference>
            </subject>
            <effectiveDateTime value="2128-10-03T00:00:00+00:00"></effectiveDateTime>
            <valueQuantity>
               <value value="31.5"></value>
               <unit value="%"></unit>
            </valueQuantity>
         </Observation>
      </resource>
      <request>
         <method value="POST"></method>
         <url value="Observation"></url>
      </request>
   </entry>
   <entry>
      <resource>
         <Observation xmlns="http://hl7.org/fhir">
            <meta>
               <profile value="https://www.umontreal.ca/fhir/core/modul-labor/StructureDefinition/ObservationLab"></profile>
            </meta>
            <identifier>
               <use value="usual"></use>
               <type>
                  <coding>
                     <system value="http://terminology.hl7.org/CodeSystem/v2-0203"></system>
                     <code value="OBI"></code>
                     <display value="Optometrist license number"></display>
                  </coding>
               </type>
               <system value="http://www.umontreal.ca/labevents"></system>
               <value value="377594"></value>
               <assigner>
                  <reference value="10032409"></reference>
               </assigner>
            </identifier>
            <partOf>
               <reference value="24053571"></reference>
            </partOf>
            <status value="final"></status>
            <code>
               <text value="MCV"></text>
            </code>
            <subject>
               <reference value="10032409"></reference>
            </subject>
            <effectiveDateTime value="2128-10-03T00:00:00+00:00"></effectiveDateTime>
            <valueQuantity>
               <value value="82.0"></value>
               <unit value="fL"></unit>
            </valueQuantity>
         </Observation>
      </resource>
      <request>
         <method value="POST"></method>
         <url value="Observation"></url>
      </request>
   </entry>
   <entry>
      <resource>
         <Observation xmlns="http://hl7.org/fhir">
            <meta>
               <profile value="https://www.umontreal.ca/fhir/core/modul-labor/StructureDefinition/ObservationLab"></profile>
            </meta>
            <identifier>
               <use value="usual"></use>
               <type>
                  <coding>
                     <system value="http://terminology.hl7.org/CodeSystem/v2-0203"></system>
                     <code value="OBI"></code>
                     <display value="Optometrist license number"></display>
                  </coding>
               </type>
               <system value="http://www.umontreal.ca/labevents"></system>
               <value value="377595"></value>
               <assigner>
                  <reference value="10032409"></reference>
               </assigner>
            </identifier>
            <partOf>
               <reference value="24053571"></reference>
            </partOf>
            <status value="final"></status>
            <code>
               <text value="Platelet Count"></text>
            </code>
            <subject>
               <reference value="10032409"></reference>
            </subject>
            <effectiveDateTime value="2128-10-03T00:00:00+00:00"></effectiveDateTime>
            <valueQuantity>
               <value value="228.0"></value>
               <unit value="K/uL"></unit>
            </valueQuantity>
         </Observation>
      </resource>
      <request>
         <method value="POST"></method>
         <url value="Observation"></url>
      </request>
   </entry>
   <entry>
      <resource>
         <Observation xmlns="http://hl7.org/fhir">
            <meta>
               <profile value="https://www.umontreal.ca/fhir/core/modul-labor/StructureDefinition/ObservationLab"></profile>
            </meta>
            <identifier>
               <use value="usual"></use>
               <type>
                  <coding>
                     <system value="http://terminology.hl7.org/CodeSystem/v2-0203"></system>
                     <code value="OBI"></code>
                     <display value="Optometrist license number"></display>
                  </coding>
               </type>
               <system value="http://www.umontreal.ca/labevents"></system>
               <value value="377596"></value>
               <assigner>
                  <reference value="10032409"></reference>
               </assigner>
            </identifier>
            <partOf>
               <reference value="24053571"></reference>
            </partOf>
            <status value="final"></status>
            <code>
               <text value="RDW"></text>
            </code>
            <subject>
               <reference value="10032409"></reference>
            </subject>
            <effectiveDateTime value="2128-10-03T00:00:00+00:00"></effectiveDateTime>
            <valueQuantity>
               <value value="16.8"></value>
               <unit value="%"></unit>
            </valueQuantity>
         </Observation>
      </resource>
      <request>
         <method value="POST"></method>
         <url value="Observation"></url>
      </request>
   </entry>
   <entry>
      <resource>
         <Observation xmlns="http://hl7.org/fhir">
            <meta>
               <profile value="https://www.umontreal.ca/fhir/core/modul-labor/StructureDefinition/ObservationLab"></profile>
            </meta>
            <identifier>
               <use value="usual"></use>
               <type>
                  <coding>
                     <system value="http://terminology.hl7.org/CodeSystem/v2-0203"></system>
                     <code value="OBI"></code>
                     <display value="Optometrist license number"></display>
                  </coding>
               </type>
               <system value="http://www.umontreal.ca/labevents"></system>
               <value value="377597"></value>
               <assigner>
                  <reference value="10032409"></reference>
               </assigner>
            </identifier>
            <partOf>
               <reference value="24053571"></reference>
            </partOf>
            <status value="final"></status>
            <code>
               <text value="Red Blood Cells"></text>
            </code>
            <subject>
               <reference value="10032409"></reference>
            </subject>
            <effectiveDateTime value="2128-10-03T00:00:00+00:00"></effectiveDateTime>
            <valueQuantity>
               <value value="4.44"></value>
               <unit value="m/uL"></unit>
            </valueQuantity>
         </Observation>
      </resource>
      <request>
         <method value="POST"></method>
         <url value="Observation"></url>
      </request>
   </entry>
   <entry>
      <resource>
         <Observation xmlns="http://hl7.org/fhir">
            <meta>
               <profile value="https://www.umontreal.ca/fhir/core/modul-labor/StructureDefinition/ObservationLab"></profile>
            </meta>
            <identifier>
               <use value="usual"></use>
               <type>
                  <coding>
                     <system value="http://terminology.hl7.org/CodeSystem/v2-0203"></system>
                     <code value="OBI"></code>
                     <display value="Optometrist license number"></display>
                  </coding>
               </type>
               <system value="http://www.umontreal.ca/labevents"></system>
               <value value="377598"></value>
               <assigner>
                  <reference value="10032409"></reference>
               </assigner>
            </identifier>
            <partOf>
               <reference value="24053571"></reference>
            </partOf>
            <status value="final"></status>
            <code>
               <text value="White Blood Cells"></text>
            </code>
            <subject>
               <reference value="10032409"></reference>
            </subject>
            <effectiveDateTime value="2128-10-03T00:00:00+00:00"></effectiveDateTime>
            <valueQuantity>
               <value value="8.5"></value>
               <unit value="K/uL"></unit>
            </valueQuantity>
         </Observation>
      </resource>
      <request>
         <method value="POST"></method>
         <url value="Observation"></url>
      </request>
   </entry>
   <entry>
      <resource>
         <Observation xmlns="http://hl7.org/fhir">
            <meta>
               <profile value="https://www.umontreal.ca/fhir/core/modul-labor/StructureDefinition/ObservationLab"></profile>
            </meta>
            <identifier>
               <use value="usual"></use>
               <type>
                  <coding>
                     <system value="http://terminology.hl7.org/CodeSystem/v2-0203"></system>
                     <code value="OBI"></code>
                     <display value="Optometrist license number"></display>
                  </coding>
               </type>
               <system value="http://www.umontreal.ca/labevents"></system>
               <value value="377599"></value>
               <assigner>
                  <reference value="10032409"></reference>
               </assigner>
            </identifier>
            <partOf>
               <reference value="24053571"></reference>
            </partOf>
            <status value="final"></status>
            <code>
               <text value="Anion Gap"></text>
            </code>
            <subject>
               <reference value="10032409"></reference>
            </subject>
            <effectiveDateTime value="2128-10-03T00:00:00+00:00"></effectiveDateTime>
            <valueQuantity>
               <value value="10.0"></value>
               <unit value="mEq/L"></unit>
            </valueQuantity>
         </Observation>
      </resource>
      <request>
         <method value="POST"></method>
         <url value="Observation"></url>
      </request>
   </entry>
   <entry>
      <resource>
         <Observation xmlns="http://hl7.org/fhir">
            <meta>
               <profile value="https://www.umontreal.ca/fhir/core/modul-labor/StructureDefinition/ObservationLab"></profile>
            </meta>
            <identifier>
               <use value="usual"></use>
               <type>
                  <coding>
                     <system value="http://terminology.hl7.org/CodeSystem/v2-0203"></system>
                     <code value="OBI"></code>
                     <display value="Optometrist license number"></display>
                  </coding>
               </type>
               <system value="http://www.umontreal.ca/labevents"></system>
               <value value="377600"></value>
               <assigner>
                  <reference value="10032409"></reference>
               </assigner>
            </identifier>
            <partOf>
               <reference value="24053571"></reference>
            </partOf>
            <status value="final"></status>
            <code>
               <text value="Bicarbonate"></text>
            </code>
            <subject>
               <reference value="10032409"></reference>
            </subject>
            <effectiveDateTime value="2128-10-03T00:00:00+00:00"></effectiveDateTime>
            <valueQuantity>
               <value value="31.0"></value>
               <unit value="mEq/L"></unit>
            </valueQuantity>
         </Observation>
      </resource>
      <request>
         <method value="POST"></method>
         <url value="Observation"></url>
      </request>
   </entry>
   <entry>
      <resource>
         <Observation xmlns="http://hl7.org/fhir">
            <meta>
               <profile value="https://www.umontreal.ca/fhir/core/modul-labor/StructureDefinition/ObservationLab"></profile>
            </meta>
            <identifier>
               <use value="usual"></use>
               <type>
                  <coding>
                     <system value="http://terminology.hl7.org/CodeSystem/v2-0203"></system>
                     <code value="OBI"></code>
                     <display value="Optometrist license number"></display>
                  </coding>
               </type>
               <system value="http://www.umontreal.ca/labevents"></system>
               <value value="377601"></value>
               <assigner>
                  <reference value="10032409"></reference>
               </assigner>
            </identifier>
            <partOf>
               <reference value="24053571"></reference>
            </partOf>
            <status value="final"></status>
            <code>
               <text value="Calcium, Total"></text>
            </code>
            <subject>
               <reference value="10032409"></reference>
            </subject>
            <effectiveDateTime value="2128-10-03T00:00:00+00:00"></effectiveDateTime>
            <valueQuantity>
               <value value="9.6"></value>
               <unit value="mg/dL"></unit>
            </valueQuantity>
         </Observation>
      </resource>
      <request>
         <method value="POST"></method>
         <url value="Observation"></url>
      </request>
   </entry>
   <entry>
      <resource>
         <Observation xmlns="http://hl7.org/fhir">
            <meta>
               <profile value="https://www.umontreal.ca/fhir/core/modul-labor/StructureDefinition/ObservationLab"></profile>
            </meta>
            <identifier>
               <use value="usual"></use>
               <type>
                  <coding>
                     <system value="http://terminology.hl7.org/CodeSystem/v2-0203"></system>
                     <code value="OBI"></code>
                     <display value="Optometrist license number"></display>
                  </coding>
               </type>
               <system value="http://www.umontreal.ca/labevents"></system>
               <value value="377602"></value>
               <assigner>
                  <reference value="10032409"></reference>
               </assigner>
            </identifier>
            <partOf>
               <reference value="24053571"></reference>
            </partOf>
            <status value="final"></status>
            <code>
               <text value="Chloride"></text>
            </code>
            <subject>
               <reference value="10032409"></reference>
            </subject>
            <effectiveDateTime value="2128-10-03T00:00:00+00:00"></effectiveDateTime>
            <valueQuantity>
               <value value="100.0"></value>
               <unit value="mEq/L"></unit>
            </valueQuantity>
         </Observation>
      </resource>
      <request>
         <method value="POST"></method>
         <url value="Observation"></url>
      </request>
   </entry>
   <entry>
      <resource>
         <Observation xmlns="http://hl7.org/fhir">
            <meta>
               <profile value="https://www.umontreal.ca/fhir/core/modul-labor/StructureDefinition/ObservationLab"></profile>
            </meta>
            <identifier>
               <use value="usual"></use>
               <type>
                  <coding>
                     <system value="http://terminology.hl7.org/CodeSystem/v2-0203"></system>
                     <code value="OBI"></code>
                     <display value="Optometrist license number"></display>
                  </coding>
               </type>
               <system value="http://www.umontreal.ca/labevents"></system>
               <value value="377603"></value>
               <assigner>
                  <reference value="10032409"></reference>
               </assigner>
            </identifier>
            <partOf>
               <reference value="24053571"></reference>
            </partOf>
            <status value="final"></status>
            <code>
               <text value="Creatinine"></text>
            </code>
            <subject>
               <reference value="10032409"></reference>
            </subject>
            <effectiveDateTime value="2128-10-03T00:00:00+00:00"></effectiveDateTime>
            <valueQuantity>
               <value value="0.6"></value>
               <unit value="mg/dL"></unit>
            </valueQuantity>
         </Observation>
      </resource>
      <request>
         <method value="POST"></method>
         <url value="Observation"></url>
      </request>
   </entry>
   <entry>
      <resource>
         <Observation xmlns="http://hl7.org/fhir">
            <meta>
               <profile value="https://www.umontreal.ca/fhir/core/modul-labor/StructureDefinition/ObservationLab"></profile>
            </meta>
            <identifier>
               <use value="usual"></use>
               <type>
                  <coding>
                     <system value="http://terminology.hl7.org/CodeSystem/v2-0203"></system>
                     <code value="OBI"></code>
                     <display value="Optometrist license number"></display>
                  </coding>
               </type>
               <system value="http://www.umontreal.ca/labevents"></system>
               <value value="377604"></value>
               <assigner>
                  <reference value="10032409"></reference>
               </assigner>
            </identifier>
            <partOf>
               <reference value="24053571"></reference>
            </partOf>
            <status value="final"></status>
            <code>
               <text value="Glucose"></text>
            </code>
            <subject>
               <reference value="10032409"></reference>
            </subject>
            <effectiveDateTime value="2128-10-03T00:00:00+00:00"></effectiveDateTime>
            <valueQuantity>
               <value value="199.0"></value>
               <unit value="mg/dL"></unit>
            </valueQuantity>
            <note>
               <text value="IF FASTING, 70-100 NORMAL, &gt;125 PROVISIONAL DIABETES."></text>
            </note>
         </Observation>
      </resource>
      <request>
         <method value="POST"></method>
         <url value="Observation"></url>
      </request>
   </entry>
   <entry>
      <resource>
         <Observation xmlns="http://hl7.org/fhir">
            <meta>
               <profile value="https://www.umontreal.ca/fhir/core/modul-labor/StructureDefinition/ObservationLab"></profile>
            </meta>
            <identifier>
               <use value="usual"></use>
               <type>
                  <coding>
                     <system value="http://terminology.hl7.org/CodeSystem/v2-0203"></system>
                     <code value="OBI"></code>
                     <display value="Optometrist license number"></display>
                  </coding>
               </type>
               <system value="http://www.umontreal.ca/labevents"></system>
               <value value="377605"></value>
               <assigner>
                  <reference value="10032409"></reference>
               </assigner>
            </identifier>
            <partOf>
               <reference value="24053571"></reference>
            </partOf>
            <status value="final"></status>
            <code>
               <text value="Magnesium"></text>
            </code>
            <subject>
               <reference value="10032409"></reference>
            </subject>
            <effectiveDateTime value="2128-10-03T00:00:00+00:00"></effectiveDateTime>
            <valueQuantity>
               <value value="2.0"></value>
               <unit value="mg/dL"></unit>
            </valueQuantity>
         </Observation>
      </resource>
      <request>
         <method value="POST"></method>
         <url value="Observation"></url>
      </request>
   </entry>
   <entry>
      <resource>
         <Observation xmlns="http://hl7.org/fhir">
            <meta>
               <profile value="https://www.umontreal.ca/fhir/core/modul-labor/StructureDefinition/ObservationLab"></profile>
            </meta>
            <identifier>
               <use value="usual"></use>
               <type>
                  <coding>
                     <system value="http://terminology.hl7.org/CodeSystem/v2-0203"></system>
                     <code value="OBI"></code>
                     <display value="Optometrist license number"></display>
                  </coding>
               </type>
               <system value="http://www.umontreal.ca/labevents"></system>
               <value value="377606"></value>
               <assigner>
                  <reference value="10032409"></reference>
               </assigner>
            </identifier>
            <partOf>
               <reference value="24053571"></reference>
            </partOf>
            <status value="final"></status>
            <code>
               <text value="Phosphate"></text>
            </code>
            <subject>
               <reference value="10032409"></reference>
            </subject>
            <effectiveDateTime value="2128-10-03T00:00:00+00:00"></effectiveDateTime>
            <valueQuantity>
               <value value="2.9"></value>
               <unit value="mg/dL"></unit>
            </valueQuantity>
         </Observation>
      </resource>
      <request>
         <method value="POST"></method>
         <url value="Observation"></url>
      </request>
   </entry>
   <entry>
      <resource>
         <Observation xmlns="http://hl7.org/fhir">
            <meta>
               <profile value="https://www.umontreal.ca/fhir/core/modul-labor/StructureDefinition/ObservationLab"></profile>
            </meta>
            <identifier>
               <use value="usual"></use>
               <type>
                  <coding>
                     <system value="http://terminology.hl7.org/CodeSystem/v2-0203"></system>
                     <code value="OBI"></code>
                     <display value="Optometrist license number"></display>
                  </coding>
               </type>
               <system value="http://www.umontreal.ca/labevents"></system>
               <value value="377607"></value>
               <assigner>
                  <reference value="10032409"></reference>
               </assigner>
            </identifier>
            <partOf>
               <reference value="24053571"></reference>
            </partOf>
            <status value="final"></status>
            <code>
               <text value="Potassium"></text>
            </code>
            <subject>
               <reference value="10032409"></reference>
            </subject>
            <effectiveDateTime value="2128-10-03T00:00:00+00:00"></effectiveDateTime>
            <valueQuantity>
               <value value="4.1"></value>
               <unit value="mEq/L"></unit>
            </valueQuantity>
         </Observation>
      </resource>
      <request>
         <method value="POST"></method>
         <url value="Observation"></url>
      </request>
   </entry>
   <entry>
      <resource>
         <Observation xmlns="http://hl7.org/fhir">
            <meta>
               <profile value="https://www.umontreal.ca/fhir/core/modul-labor/StructureDefinition/ObservationLab"></profile>
            </meta>
            <identifier>
               <use value="usual"></use>
               <type>
                  <coding>
                     <system value="http://terminology.hl7.org/CodeSystem/v2-0203"></system>
                     <code value="OBI"></code>
                     <display value="Optometrist license number"></display>
                  </coding>
               </type>
               <system value="http://www.umontreal.ca/labevents"></system>
               <value value="377608"></value>
               <assigner>
                  <reference value="10032409"></reference>
               </assigner>
            </identifier>
            <partOf>
               <reference value="24053571"></reference>
            </partOf>
            <status value="final"></status>
            <code>
               <text value="Sodium"></text>
            </code>
            <subject>
               <reference value="10032409"></reference>
            </subject>
            <effectiveDateTime value="2128-10-03T00:00:00+00:00"></effectiveDateTime>
            <valueQuantity>
               <value value="137.0"></value>
               <unit value="mEq/L"></unit>
            </valueQuantity>
         </Observation>
      </resource>
      <request>
         <method value="POST"></method>
         <url value="Observation"></url>
      </request>
   </entry>
   <entry>
      <resource>
         <Observation xmlns="http://hl7.org/fhir">
            <meta>
               <profile value="https://www.umontreal.ca/fhir/core/modul-labor/StructureDefinition/ObservationLab"></profile>
            </meta>
            <identifier>
               <use value="usual"></use>
               <type>
                  <coding>
                     <system value="http://terminology.hl7.org/CodeSystem/v2-0203"></system>
                     <code value="OBI"></code>
                     <display value="Optometrist license number"></display>
                  </coding>
               </type>
               <system value="http://www.umontreal.ca/labevents"></system>
               <value value="377609"></value>
               <assigner>
                  <reference value="10032409"></reference>
               </assigner>
            </identifier>
            <partOf>
               <reference value="24053571"></reference>
            </partOf>
            <status value="final"></status>
            <code>
               <text value="Urea Nitrogen"></text>
            </code>
            <subject>
               <reference value="10032409"></reference>
            </subject>
            <effectiveDateTime value="2128-10-03T00:00:00+00:00"></effectiveDateTime>
            <valueQuantity>
               <value value="13.0"></value>
               <unit value="mg/dL"></unit>
            </valueQuantity>
         </Observation>
      </resource>
      <request>
         <method value="POST"></method>
         <url value="Observation"></url>
      </request>
   </entry>
</Bundle>