<Bundle xmlns="http://hl7.org/fhir">
   <type value="transaction"></type>
   <entry>
      <fullUrl value="urn:uuid:1f9149f0-01fc-4a62-8efa-a835102ec5d6"></fullUrl>
      <resource>
         <Patient xmlns="http://hl7.org/fhir">
            <meta>
               <profile value="https://www.medizininformatik-initiative.de/fhir/core/modul-person/StructureDefinition/Patient"></profile>
            </meta>
            <text>
               <status value="generated"></status>
               <div xmlns="http://www.w3.org/1999/xhtml"> 
                  <div class="hapiHeaderText">10076958 
                     <b>PATIENT_10076958 </b> 
                  </div> 
                  <table class="hapiPropertyTable"> 
                     <tbody> 
                        <tr> 
                           <td>Identifier</td> 
                           <td>10076958</td> 
                        </tr> 
                        <tr> 
                           <td>Address</td> 
                           <td> 
                              <span>Musterstrasse 1 </span> 
                              <br></br> 
                              <span>Berlin </span> 
                              <span>DE </span> 
                           </td> 
                        </tr> 
                        <tr> 
                           <td>Date of birth</td> 
                           <td> 
                              <span>01 January 2047</span> 
                           </td> 
                        </tr> 
                     </tbody> 
                  </table> 
               </div>
            </text>
            <identifier>
               <use value="usual"></use>
               <type>
                  <coding>
                     <system value="http://terminology.hl7.org/CodeSystem/v2-0203"></system>
                     <code value="MR"></code>
                  </coding>
               </type>
               <system value="http://www.umontreal.ca/patients"></system>
               <value value="10076958"></value>
            </identifier>
            <name>
               <use value="official"></use>
               <family value="Patient_10076958">
                  <extension url="http://hl7.org/fhir/StructureDefinition/humanname-own-name">
                     <valueString value="Patient_10076958"></valueString>
                  </extension>
               </family>
               <given value="10076958"></given>
            </name>
            <gender value="female"></gender>
            <birthDate value="2047-01-01">
               <extension url="http://hl7.org/fhir/StructureDefinition/data-absent-reason">
                  <valueCode value="masked"></valueCode>
               </extension>
            </birthDate>
            <deceasedDateTime value="2113-05-03T00:00:00+00:00"></deceasedDateTime>
            <address>
               <type value="postal"></type>
               <line value="Musterstrasse 1">
                  <extension url="http://hl7.org/fhir/StructureDefinition/iso21090-ADXP-streetName">
                     <valueString value="Musterstrasse"></valueString>
                  </extension>
                  <extension url="http://hl7.org/fhir/StructureDefinition/iso21090-ADXP-houseNumber">
                     <valueString value="1"></valueString>
                  </extension>
               </line>
               <city value="Berlin"></city>
               <postalCode value="12043"></postalCode>
               <country value="DE"></country>
            </address>
            <maritalStatus>
               <coding>
                  <system value="http://hl7.org/fhir/ValueSet/marital-status"></system>
                  <code value="M"></code>
                  <display value="Married"></display>
               </coding>
            </maritalStatus>
         </Patient>
      </resource>
      <request>
         <method value="POST"></method>
         <url value="Patient"></url>
         <ifNoneExist value="identifier=http://www.umontreal.ca/patients|10076958"></ifNoneExist>
      </request>
   </entry>
   <entry>
      <fullUrl value="urn:uuid:2cd27265-a906-45af-ac9d-9a51f1ac6aae"></fullUrl>
      <resource>
         <Organization xmlns="http://hl7.org/fhir">
            <identifier>
               <system value="http://www.umontreal.ca"></system>
               <value value="hospital"></value>
            </identifier>
            <type>
               <coding>
                  <system value="http://hl7.org/fhir/organization-type"></system>
                  <code value="prov"></code>
                  <display value="Healthcare Provider"></display>
               </coding>
            </type>
            <name value="IMI-Mimic Hospital"></name>
         </Organization>
      </resource>
      <request>
         <method value="POST"></method>
         <url value="Organization"></url>
         <ifNoneExist value="identifier=http://www.umontreal.ca|hospital"></ifNoneExist>
      </request>
   </entry>
   <entry>
      <fullUrl value="urn:uuid:ea234f41-57d1-4867-8364-2c4e5cd38307"></fullUrl>
      <resource>
         <Condition xmlns="http://hl7.org/fhir">
            <meta>
               <profile value="https://www.medizininformatik-initiative.de/fhir/core/modul-diagnose/StructureDefinition/Diagnose"></profile>
            </meta>
            <identifier>
               <system value="http://www.imi-mimic.de/diags"></system>
               <value value="null_12"></value>
            </identifier>
            <subject>
               <reference value="10076958"></reference>
            </subject>
            <recordedDate>
               <extension url="http://hl7.org/fhir/StructureDefinition/data-absent-reason">
                  <valueCode value="unknown"></valueCode>
               </extension>
            </recordedDate>
         </Condition>
      </resource>
      <request>
         <method value="POST"></method>
         <url value="Condition"></url>
         <ifNoneExist value="identifier=http://www.imi-mimic.de/diags|null_12"></ifNoneExist>
      </request>
   </entry>
   <entry>
      <fullUrl value="urn:uuid:137ed5c6-72b5-4fbf-9803-a1eaa5af2f85"></fullUrl>
      <resource>
         <Condition xmlns="http://hl7.org/fhir">
            <meta>
               <profile value="https://www.medizininformatik-initiative.de/fhir/core/modul-diagnose/StructureDefinition/Diagnose"></profile>
            </meta>
            <identifier>
               <system value="http://www.imi-mimic.de/diags"></system>
               <value value="null_11"></value>
            </identifier>
            <subject>
               <reference value="10076958"></reference>
            </subject>
            <recordedDate>
               <extension url="http://hl7.org/fhir/StructureDefinition/data-absent-reason">
                  <valueCode value="unknown"></valueCode>
               </extension>
            </recordedDate>
         </Condition>
      </resource>
      <request>
         <method value="POST"></method>
         <url value="Condition"></url>
         <ifNoneExist value="identifier=http://www.imi-mimic.de/diags|null_11"></ifNoneExist>
      </request>
   </entry>
   <entry>
      <fullUrl value="urn:uuid:2108d231-953a-4ef4-80c0-ddec1122b25a"></fullUrl>
      <resource>
         <Condition xmlns="http://hl7.org/fhir">
            <meta>
               <profile value="https://www.medizininformatik-initiative.de/fhir/core/modul-diagnose/StructureDefinition/Diagnose"></profile>
            </meta>
            <identifier>
               <system value="http://www.imi-mimic.de/diags"></system>
               <value value="null_10"></value>
            </identifier>
            <subject>
               <reference value="10076958"></reference>
            </subject>
            <recordedDate>
               <extension url="http://hl7.org/fhir/StructureDefinition/data-absent-reason">
                  <valueCode value="unknown"></valueCode>
               </extension>
            </recordedDate>
         </Condition>
      </resource>
      <request>
         <method value="POST"></method>
         <url value="Condition"></url>
         <ifNoneExist value="identifier=http://www.imi-mimic.de/diags|null_10"></ifNoneExist>
      </request>
   </entry>
   <entry>
      <fullUrl value="urn:uuid:f42fc26b-0864-4054-a576-433aa364d554"></fullUrl>
      <resource>
         <Condition xmlns="http://hl7.org/fhir">
            <meta>
               <profile value="https://www.medizininformatik-initiative.de/fhir/core/modul-diagnose/StructureDefinition/Diagnose"></profile>
            </meta>
            <identifier>
               <system value="http://www.imi-mimic.de/diags"></system>
               <value value="null_9"></value>
            </identifier>
            <subject>
               <reference value="10076958"></reference>
            </subject>
            <recordedDate>
               <extension url="http://hl7.org/fhir/StructureDefinition/data-absent-reason">
                  <valueCode value="unknown"></valueCode>
               </extension>
            </recordedDate>
         </Condition>
      </resource>
      <request>
         <method value="POST"></method>
         <url value="Condition"></url>
         <ifNoneExist value="identifier=http://www.imi-mimic.de/diags|null_9"></ifNoneExist>
      </request>
   </entry>
   <entry>
      <fullUrl value="urn:uuid:1c166fa8-41c2-4cd2-8cfe-6776d545af03"></fullUrl>
      <resource>
         <Condition xmlns="http://hl7.org/fhir">
            <meta>
               <profile value="https://www.medizininformatik-initiative.de/fhir/core/modul-diagnose/StructureDefinition/Diagnose"></profile>
            </meta>
            <identifier>
               <system value="http://www.imi-mimic.de/diags"></system>
               <value value="null_8"></value>
            </identifier>
            <subject>
               <reference value="10076958"></reference>
            </subject>
            <recordedDate>
               <extension url="http://hl7.org/fhir/StructureDefinition/data-absent-reason">
                  <valueCode value="unknown"></valueCode>
               </extension>
            </recordedDate>
         </Condition>
      </resource>
      <request>
         <method value="POST"></method>
         <url value="Condition"></url>
         <ifNoneExist value="identifier=http://www.imi-mimic.de/diags|null_8"></ifNoneExist>
      </request>
   </entry>
   <entry>
      <fullUrl value="urn:uuid:2d30832b-440f-4674-8be5-2134e6a8d7ec"></fullUrl>
      <resource>
         <Condition xmlns="http://hl7.org/fhir">
            <meta>
               <profile value="https://www.medizininformatik-initiative.de/fhir/core/modul-diagnose/StructureDefinition/Diagnose"></profile>
            </meta>
            <identifier>
               <system value="http://www.imi-mimic.de/diags"></system>
               <value value="null_7"></value>
            </identifier>
            <subject>
               <reference value="10076958"></reference>
            </subject>
            <recordedDate>
               <extension url="http://hl7.org/fhir/StructureDefinition/data-absent-reason">
                  <valueCode value="unknown"></valueCode>
               </extension>
            </recordedDate>
         </Condition>
      </resource>
      <request>
         <method value="POST"></method>
         <url value="Condition"></url>
         <ifNoneExist value="identifier=http://www.imi-mimic.de/diags|null_7"></ifNoneExist>
      </request>
   </entry>
   <entry>
      <fullUrl value="urn:uuid:237761d8-6173-4aa3-817f-38b249c20966"></fullUrl>
      <resource>
         <Condition xmlns="http://hl7.org/fhir">
            <meta>
               <profile value="https://www.medizininformatik-initiative.de/fhir/core/modul-diagnose/StructureDefinition/Diagnose"></profile>
            </meta>
            <identifier>
               <system value="http://www.imi-mimic.de/diags"></system>
               <value value="null_6"></value>
            </identifier>
            <subject>
               <reference value="10076958"></reference>
            </subject>
            <recordedDate>
               <extension url="http://hl7.org/fhir/StructureDefinition/data-absent-reason">
                  <valueCode value="unknown"></valueCode>
               </extension>
            </recordedDate>
         </Condition>
      </resource>
      <request>
         <method value="POST"></method>
         <url value="Condition"></url>
         <ifNoneExist value="identifier=http://www.imi-mimic.de/diags|null_6"></ifNoneExist>
      </request>
   </entry>
   <entry>
      <fullUrl value="urn:uuid:6dbdac67-ea29-4280-9238-e8ba7b2e10b5"></fullUrl>
      <resource>
         <Condition xmlns="http://hl7.org/fhir">
            <meta>
               <profile value="https://www.medizininformatik-initiative.de/fhir/core/modul-diagnose/StructureDefinition/Diagnose"></profile>
            </meta>
            <identifier>
               <system value="http://www.imi-mimic.de/diags"></system>
               <value value="null_5"></value>
            </identifier>
            <subject>
               <reference value="10076958"></reference>
            </subject>
            <recordedDate>
               <extension url="http://hl7.org/fhir/StructureDefinition/data-absent-reason">
                  <valueCode value="unknown"></valueCode>
               </extension>
            </recordedDate>
         </Condition>
      </resource>
      <request>
         <method value="POST"></method>
         <url value="Condition"></url>
         <ifNoneExist value="identifier=http://www.imi-mimic.de/diags|null_5"></ifNoneExist>
      </request>
   </entry>
   <entry>
      <fullUrl value="urn:uuid:071127d9-109e-413f-9608-858560d6540c"></fullUrl>
      <resource>
         <Condition xmlns="http://hl7.org/fhir">
            <meta>
               <profile value="https://www.medizininformatik-initiative.de/fhir/core/modul-diagnose/StructureDefinition/Diagnose"></profile>
            </meta>
            <identifier>
               <system value="http://www.imi-mimic.de/diags"></system>
               <value value="null_4"></value>
            </identifier>
            <subject>
               <reference value="10076958"></reference>
            </subject>
            <recordedDate>
               <extension url="http://hl7.org/fhir/StructureDefinition/data-absent-reason">
                  <valueCode value="unknown"></valueCode>
               </extension>
            </recordedDate>
         </Condition>
      </resource>
      <request>
         <method value="POST"></method>
         <url value="Condition"></url>
         <ifNoneExist value="identifier=http://www.imi-mimic.de/diags|null_4"></ifNoneExist>
      </request>
   </entry>
   <entry>
      <fullUrl value="urn:uuid:19d93406-b2f6-4918-b4cd-1a8120eeb2e0"></fullUrl>
      <resource>
         <Condition xmlns="http://hl7.org/fhir">
            <meta>
               <profile value="https://www.medizininformatik-initiative.de/fhir/core/modul-diagnose/StructureDefinition/Diagnose"></profile>
            </meta>
            <identifier>
               <system value="http://www.imi-mimic.de/diags"></system>
               <value value="null_3"></value>
            </identifier>
            <subject>
               <reference value="10076958"></reference>
            </subject>
            <recordedDate>
               <extension url="http://hl7.org/fhir/StructureDefinition/data-absent-reason">
                  <valueCode value="unknown"></valueCode>
               </extension>
            </recordedDate>
         </Condition>
      </resource>
      <request>
         <method value="POST"></method>
         <url value="Condition"></url>
         <ifNoneExist value="identifier=http://www.imi-mimic.de/diags|null_3"></ifNoneExist>
      </request>
   </entry>
   <entry>
      <fullUrl value="urn:uuid:3b40e16d-d646-40df-870b-5f8ccf00ee20"></fullUrl>
      <resource>
         <Condition xmlns="http://hl7.org/fhir">
            <meta>
               <profile value="https://www.medizininformatik-initiative.de/fhir/core/modul-diagnose/StructureDefinition/Diagnose"></profile>
            </meta>
            <identifier>
               <system value="http://www.imi-mimic.de/diags"></system>
               <value value="null_2"></value>
            </identifier>
            <subject>
               <reference value="10076958"></reference>
            </subject>
            <recordedDate>
               <extension url="http://hl7.org/fhir/StructureDefinition/data-absent-reason">
                  <valueCode value="unknown"></valueCode>
               </extension>
            </recordedDate>
         </Condition>
      </resource>
      <request>
         <method value="POST"></method>
         <url value="Condition"></url>
         <ifNoneExist value="identifier=http://www.imi-mimic.de/diags|null_2"></ifNoneExist>
      </request>
   </entry>
   <entry>
      <fullUrl value="urn:uuid:d7dea23b-37ed-404c-895f-4679fb3419c1"></fullUrl>
      <resource>
         <Condition xmlns="http://hl7.org/fhir">
            <meta>
               <profile value="https://www.medizininformatik-initiative.de/fhir/core/modul-diagnose/StructureDefinition/Diagnose"></profile>
            </meta>
            <identifier>
               <system value="http://www.imi-mimic.de/diags"></system>
               <value value="null_1"></value>
            </identifier>
            <subject>
               <reference value="10076958"></reference>
            </subject>
            <recordedDate>
               <extension url="http://hl7.org/fhir/StructureDefinition/data-absent-reason">
                  <valueCode value="unknown"></valueCode>
               </extension>
            </recordedDate>
         </Condition>
      </resource>
      <request>
         <method value="POST"></method>
         <url value="Condition"></url>
         <ifNoneExist value="identifier=http://www.imi-mimic.de/diags|null_1"></ifNoneExist>
      </request>
   </entry>
   <entry>
      <fullUrl value="urn:uuid:1edec639-6772-432b-90fa-fae1f64af849"></fullUrl>
      <resource>
         <Procedure xmlns="http://hl7.org/fhir">
            <meta>
               <profile value="https://www.medizininformatik-initiative.de/fhir/core/modul-prozedur/StructureDefinition/Procedure"></profile>
            </meta>
            <identifier>
               <system value="http://www.imi-mimic.de/procs"></system>
               <value value="24463507_2"></value>
            </identifier>
            <status value="completed"></status>
            <subject>
               <reference value="10076958"></reference>
            </subject>
            <encounter>
               <reference value="24463507"></reference>
            </encounter>
         </Procedure>
      </resource>
      <request>
         <method value="POST"></method>
         <url value="Procedure"></url>
         <ifNoneExist value="identifier=http://www.imi-mimic.de/procs|24463507_2"></ifNoneExist>
      </request>
   </entry>
   <entry>
      <fullUrl value="urn:uuid:22f98f21-200b-4d1b-a175-8ceb9045e7ab"></fullUrl>
      <resource>
         <Procedure xmlns="http://hl7.org/fhir">
            <meta>
               <profile value="https://www.medizininformatik-initiative.de/fhir/core/modul-prozedur/StructureDefinition/Procedure"></profile>
            </meta>
            <identifier>
               <system value="http://www.imi-mimic.de/procs"></system>
               <value value="24463507_1"></value>
            </identifier>
            <status value="completed"></status>
            <subject>
               <reference value="10076958"></reference>
            </subject>
            <encounter>
               <reference value="24463507"></reference>
            </encounter>
         </Procedure>
      </resource>
      <request>
         <method value="POST"></method>
         <url value="Procedure"></url>
         <ifNoneExist value="identifier=http://www.imi-mimic.de/procs|24463507_1"></ifNoneExist>
      </request>
   </entry>
   <entry>
      <fullUrl value="urn:uuid:4338d3a9-d48a-46dd-bfd8-6fd8722080b0"></fullUrl>
      <resource>
         <Location xmlns="http://hl7.org/fhir">
            <identifier>
               <system value="http://www.imi-mimic.de/location/Unknown"></system>
               <value value="Unknown"></value>
            </identifier>
            <name value="Unknown"></name>
            <type>
               <coding>
                  <system value="http://terminology.hl7.org/ValueSet/v3-ServiceDeliveryLocationRoleType"></system>
                  <code value="_ServiceDeliveryLocationRoleType"></code>
                  <display value="ServiceDeliveryLocationRoleType"></display>
               </coding>
            </type>
            <physicalType>
               <coding>
                  <system value="http://terminology.hl7.org/CodeSystem/location-physical-type"></system>
                  <code value="wa"></code>
                  <display value="Ward"></display>
               </coding>
            </physicalType>
            <managingOrganization>
               <reference value="urn:uuid:36ad2032-0307-431e-be03-410e49e859e4"></reference>
            </managingOrganization>
         </Location>
      </resource>
      <request>
         <method value="POST"></method>
         <url value="Location"></url>
         <ifNoneExist value="identifier=http://www.imi-mimic.de/location/Unknown|Unknown"></ifNoneExist>
      </request>
   </entry>
   <entry>
      <fullUrl value="urn:uuid:f2824170-b678-4663-8d5c-0fb7cf55282b"></fullUrl>
      <resource>
         <Encounter xmlns="http://hl7.org/fhir">
            <status value="finished"></status>
            <class>
               <system value="https://www.medizininformatik-initiative.de/fhir/core/CodeSystem/EncounterClassAdditionsDE"></system>
               <code value="_ActEncounterCode"></code>
               <display value="ActEncounterCode"></display>
            </class>
            <period>
               <start value="2113-04-05T00:00:00+00:00"></start>
            </period>
            <location>
               <location>
                  <reference value="urn:uuid:4338d3a9-d48a-46dd-bfd8-6fd8722080b0"></reference>
               </location>
               <status value="completed"></status>
               <physicalType>
                  <coding>
                     <system value="http://terminology.hl7.org/CodeSystem/location-physical-type"></system>
                     <code value="wa"></code>
                     <display value="Ward"></display>
                  </coding>
               </physicalType>
               <period>
                  <start value="2113-04-05T00:00:00+00:00"></start>
               </period>
            </location>
            <serviceProvider>
               <reference value="urn:uuid:36ad2032-0307-431e-be03-410e49e859e4"></reference>
            </serviceProvider>
            <partOf>
               <reference value="urn:uuid:9534fc50-f234-46a6-a97c-997bb6a59e07"></reference>
            </partOf>
         </Encounter>
      </resource>
      <request>
         <method value="POST"></method>
         <url value="Encounter"></url>
         <ifNoneExist value="identifier=null|null"></ifNoneExist>
      </request>
   </entry>
   <entry>
      <fullUrl value="urn:uuid:cc854014-7512-4ae2-9686-dc15ac4d31fd"></fullUrl>
      <resource>
         <Location xmlns="http://hl7.org/fhir">
            <identifier>
               <system value="http://www.imi-mimic.de/location/Med/Surg"></system>
               <value value="Med/Surg"></value>
            </identifier>
            <name value="Med/Surg"></name>
            <type>
               <coding>
                  <system value="http://terminology.hl7.org/ValueSet/v3-ServiceDeliveryLocationRoleType"></system>
                  <code value="_ServiceDeliveryLocationRoleType"></code>
                  <display value="ServiceDeliveryLocationRoleType"></display>
               </coding>
            </type>
            <physicalType>
               <coding>
                  <system value="http://terminology.hl7.org/CodeSystem/location-physical-type"></system>
                  <code value="wa"></code>
                  <display value="Ward"></display>
               </coding>
            </physicalType>
            <managingOrganization>
               <reference value="urn:uuid:888ab577-bd26-42e2-87e2-a9d27bf376fd"></reference>
            </managingOrganization>
         </Location>
      </resource>
      <request>
         <method value="POST"></method>
         <url value="Location"></url>
         <ifNoneExist value="identifier=http://www.imi-mimic.de/location/Med/Surg|Med/Surg"></ifNoneExist>
      </request>
   </entry>
   <entry>
      <fullUrl value="urn:uuid:6e54482a-f000-4c43-8eb6-2d8c75bf34be"></fullUrl>
      <resource>
         <Encounter xmlns="http://hl7.org/fhir">
            <status value="finished"></status>
            <class>
               <system value="https://www.medizininformatik-initiative.de/fhir/core/CodeSystem/EncounterClassAdditionsDE"></system>
               <code value="_ActEncounterCode"></code>
               <display value="ActEncounterCode"></display>
            </class>
            <period>
               <start value="2113-03-31T00:00:00+00:00"></start>
               <end value="2113-04-01T00:00:00+00:00"></end>
            </period>
            <location>
               <location>
                  <reference value="urn:uuid:cc854014-7512-4ae2-9686-dc15ac4d31fd"></reference>
               </location>
               <status value="completed"></status>
               <physicalType>
                  <coding>
                     <system value="http://terminology.hl7.org/CodeSystem/location-physical-type"></system>
                     <code value="wa"></code>
                     <display value="Ward"></display>
                  </coding>
               </physicalType>
               <period>
                  <start value="2113-03-31T00:00:00+00:00"></start>
                  <end value="2113-04-01T00:00:00+00:00"></end>
               </period>
            </location>
            <serviceProvider>
               <reference value="urn:uuid:888ab577-bd26-42e2-87e2-a9d27bf376fd"></reference>
            </serviceProvider>
            <partOf>
               <reference value="urn:uuid:9534fc50-f234-46a6-a97c-997bb6a59e07"></reference>
            </partOf>
         </Encounter>
      </resource>
      <request>
         <method value="POST"></method>
         <url value="Encounter"></url>
         <ifNoneExist value="identifier=null|null"></ifNoneExist>
      </request>
   </entry>
   <entry>
      <fullUrl value="urn:uuid:6cd56d23-4c72-4f4f-abb1-75f1e635882f"></fullUrl>
      <resource>
         <Location xmlns="http://hl7.org/fhir">
            <identifier>
               <system value="http://www.imi-mimic.de/location/Discharge_Lounge"></system>
               <value value="Discharge Lounge"></value>
            </identifier>
            <name value="Discharge Lounge"></name>
            <type>
               <coding>
                  <system value="http://terminology.hl7.org/ValueSet/v3-ServiceDeliveryLocationRoleType"></system>
                  <code value="_ServiceDeliveryLocationRoleType"></code>
                  <display value="ServiceDeliveryLocationRoleType"></display>
               </coding>
            </type>
            <physicalType>
               <coding>
                  <system value="http://terminology.hl7.org/CodeSystem/location-physical-type"></system>
                  <code value="wa"></code>
                  <display value="Ward"></display>
               </coding>
            </physicalType>
            <managingOrganization>
               <reference value="urn:uuid:c0557ede-45ec-41ca-97e3-b0eb775befd1"></reference>
            </managingOrganization>
         </Location>
      </resource>
      <request>
         <method value="POST"></method>
         <url value="Location"></url>
         <ifNoneExist value="identifier=http://www.imi-mimic.de/location/Discharge_Lounge|Discharge Lounge"></ifNoneExist>
      </request>
   </entry>
   <entry>
      <fullUrl value="urn:uuid:89b45bac-08e4-4115-b11c-b17a8e21b854"></fullUrl>
      <resource>
         <Encounter xmlns="http://hl7.org/fhir">
            <status value="finished"></status>
            <class>
               <system value="https://www.medizininformatik-initiative.de/fhir/core/CodeSystem/EncounterClassAdditionsDE"></system>
               <code value="_ActEncounterCode"></code>
               <display value="ActEncounterCode"></display>
            </class>
            <period>
               <start value="2113-03-31T00:00:00+00:00"></start>
               <end value="2113-03-31T00:00:00+00:00"></end>
            </period>
            <location>
               <location>
                  <reference value="urn:uuid:6cd56d23-4c72-4f4f-abb1-75f1e635882f"></reference>
               </location>
               <status value="completed"></status>
               <physicalType>
                  <coding>
                     <system value="http://terminology.hl7.org/CodeSystem/location-physical-type"></system>
                     <code value="wa"></code>
                     <display value="Ward"></display>
                  </coding>
               </physicalType>
               <period>
                  <start value="2113-03-31T00:00:00+00:00"></start>
                  <end value="2113-03-31T00:00:00+00:00"></end>
               </period>
            </location>
            <serviceProvider>
               <reference value="urn:uuid:c0557ede-45ec-41ca-97e3-b0eb775befd1"></reference>
            </serviceProvider>
            <partOf>
               <reference value="urn:uuid:9534fc50-f234-46a6-a97c-997bb6a59e07"></reference>
            </partOf>
         </Encounter>
      </resource>
      <request>
         <method value="POST"></method>
         <url value="Encounter"></url>
         <ifNoneExist value="identifier=null|null"></ifNoneExist>
      </request>
   </entry>
   <entry>
      <fullUrl value="urn:uuid:9534fc50-f234-46a6-a97c-997bb6a59e07"></fullUrl>
      <resource>
         <Encounter xmlns="http://hl7.org/fhir">
            <meta>
               <profile value="https://www.umontreal.ca/fhir/core/modul-fall/StructureDefinition/KontaktGesundheitseinrichtung"></profile>
            </meta>
            <identifier>
               <type>
                  <coding>
                     <system value="http://terminology.hl7.org/CodeSystem/v2-0203"></system>
                     <code value="VN"></code>
                  </coding>
               </type>
               <system value="http://www.umontreal.ca/encs"></system>
               <value value="24463507"></value>
            </identifier>
            <status value="finished"></status>
            <class>
               <system value="https://www.umontreal.ca/fhir/core/ValueSet/EncounterClassDE"></system>
               <code value="normalstationaer"></code>
               <display value="Normalstationaer"></display>
            </class>
            <period>
               <start value="2113-03-31T00:00:00+00:00"></start>
               <end value="2113-04-05T00:00:00+00:00"></end>
            </period>
            <diagnosis>
               <condition>
                  <reference value="urn:uuid:ea234f41-57d1-4867-8364-2c4e5cd38307"></reference>
               </condition>
               <rank value="12"></rank>
            </diagnosis>
            <diagnosis>
               <condition>
                  <reference value="urn:uuid:137ed5c6-72b5-4fbf-9803-a1eaa5af2f85"></reference>
               </condition>
               <rank value="11"></rank>
            </diagnosis>
            <diagnosis>
               <condition>
                  <reference value="urn:uuid:2108d231-953a-4ef4-80c0-ddec1122b25a"></reference>
               </condition>
               <rank value="10"></rank>
            </diagnosis>
            <diagnosis>
               <condition>
                  <reference value="urn:uuid:f42fc26b-0864-4054-a576-433aa364d554"></reference>
               </condition>
               <rank value="9"></rank>
            </diagnosis>
            <diagnosis>
               <condition>
                  <reference value="urn:uuid:1c166fa8-41c2-4cd2-8cfe-6776d545af03"></reference>
               </condition>
               <rank value="8"></rank>
            </diagnosis>
            <diagnosis>
               <condition>
                  <reference value="urn:uuid:2d30832b-440f-4674-8be5-2134e6a8d7ec"></reference>
               </condition>
               <rank value="7"></rank>
            </diagnosis>
            <diagnosis>
               <condition>
                  <reference value="urn:uuid:237761d8-6173-4aa3-817f-38b249c20966"></reference>
               </condition>
               <rank value="6"></rank>
            </diagnosis>
            <diagnosis>
               <condition>
                  <reference value="urn:uuid:6dbdac67-ea29-4280-9238-e8ba7b2e10b5"></reference>
               </condition>
               <rank value="5"></rank>
            </diagnosis>
            <diagnosis>
               <condition>
                  <reference value="urn:uuid:071127d9-109e-413f-9608-858560d6540c"></reference>
               </condition>
               <rank value="4"></rank>
            </diagnosis>
            <diagnosis>
               <condition>
                  <reference value="urn:uuid:19d93406-b2f6-4918-b4cd-1a8120eeb2e0"></reference>
               </condition>
               <rank value="3"></rank>
            </diagnosis>
            <diagnosis>
               <condition>
                  <reference value="urn:uuid:3b40e16d-d646-40df-870b-5f8ccf00ee20"></reference>
               </condition>
               <rank value="2"></rank>
            </diagnosis>
            <diagnosis>
               <condition>
                  <reference value="urn:uuid:d7dea23b-37ed-404c-895f-4679fb3419c1"></reference>
               </condition>
               <rank value="1"></rank>
            </diagnosis>
            <diagnosis>
               <condition>
                  <reference value="urn:uuid:1edec639-6772-432b-90fa-fae1f64af849"></reference>
               </condition>
               <rank value="2"></rank>
            </diagnosis>
            <diagnosis>
               <condition>
                  <reference value="urn:uuid:22f98f21-200b-4d1b-a175-8ceb9045e7ab"></reference>
               </condition>
               <rank value="1"></rank>
            </diagnosis>
            <hospitalization>
               <dischargeDisposition>
                  <coding>
                     <system value="https://www.medizininformatik-initiative.de/fhir/core/modul-fall/CodeSystem/Entlassungsgrund"></system>
                     <code value="019"></code>
                     <display value="Behandlung regulaer beendet, keine Angabe"></display>
                  </coding>
               </dischargeDisposition>
            </hospitalization>
         </Encounter>
      </resource>
      <request>
         <method value="POST"></method>
         <url value="Encounter"></url>
         <ifNoneExist value="identifier=http://www.umontreal.ca/encs|24463507"></ifNoneExist>
      </request>
   </entry>
   <entry>
      <fullUrl value="urn:uuid:a9a8d3a5-3231-41e0-8b76-76da978fe706"></fullUrl>
      <resource>
         <Medication xmlns="http://hl7.org/fhir">
            <text>
               <status value="generated"></status>
            </text>
         </Medication>
      </resource>
      <request>
         <method value="POST"></method>
         <url value="Medication"></url>
         <ifNoneExist value="code=null"></ifNoneExist>
      </request>
   </entry>
   <entry>
      <resource>
         <MedicationAdministration xmlns="http://hl7.org/fhir">
            <meta>
               <profile value="https://www.medizininformatik-initiative.de/fhir/core/modul-medikation/StructureDefinition/MedicationAdministration"></profile>
            </meta>
            <identifier>
               <system value="http://umontreal.ca/prescriptions"></system>
               <value value="24463507_0"></value>
            </identifier>
            <status value="completed"></status>
            <medicationReference>
               <reference value="urn:uuid:a9a8d3a5-3231-41e0-8b76-76da978fe706"></reference>
            </medicationReference>
            <subject>
               <reference value="10076958"></reference>
            </subject>
            <context>
               <reference value="24463507"></reference>
            </context>
            <effectivePeriod>
               <start value="2113-04-01T00:00:00+00:00"></start>
               <end value="2113-04-05T00:00:00+00:00"></end>
            </effectivePeriod>
         </MedicationAdministration>
      </resource>
      <request>
         <method value="POST"></method>
         <url value="MedicationAdministration"></url>
      </request>
   </entry>
   <entry>
      <resource>
         <MedicationAdministration xmlns="http://hl7.org/fhir">
            <meta>
               <profile value="https://www.medizininformatik-initiative.de/fhir/core/modul-medikation/StructureDefinition/MedicationAdministration"></profile>
            </meta>
            <identifier>
               <system value="http://umontreal.ca/prescriptions"></system>
               <value value="24463507_1"></value>
            </identifier>
            <status value="completed"></status>
            <medicationReference>
               <reference value="urn:uuid:a9a8d3a5-3231-41e0-8b76-76da978fe706"></reference>
            </medicationReference>
            <subject>
               <reference value="10076958"></reference>
            </subject>
            <context>
               <reference value="24463507"></reference>
            </context>
            <effectivePeriod>
               <start value="2113-04-02T00:00:00+00:00"></start>
               <end value="2113-04-03T00:00:00+00:00"></end>
            </effectivePeriod>
         </MedicationAdministration>
      </resource>
      <request>
         <method value="POST"></method>
         <url value="MedicationAdministration"></url>
      </request>
   </entry>
   <entry>
      <resource>
         <MedicationAdministration xmlns="http://hl7.org/fhir">
            <meta>
               <profile value="https://www.medizininformatik-initiative.de/fhir/core/modul-medikation/StructureDefinition/MedicationAdministration"></profile>
            </meta>
            <identifier>
               <system value="http://umontreal.ca/prescriptions"></system>
               <value value="24463507_2"></value>
            </identifier>
            <status value="completed"></status>
            <medicationReference>
               <reference value="urn:uuid:a9a8d3a5-3231-41e0-8b76-76da978fe706"></reference>
            </medicationReference>
            <subject>
               <reference value="10076958"></reference>
            </subject>
            <context>
               <reference value="24463507"></reference>
            </context>
            <effectivePeriod>
               <start value="2113-04-02T00:00:00+00:00"></start>
               <end value="2113-04-03T00:00:00+00:00"></end>
            </effectivePeriod>
         </MedicationAdministration>
      </resource>
      <request>
         <method value="POST"></method>
         <url value="MedicationAdministration"></url>
      </request>
   </entry>
   <entry>
      <resource>
         <MedicationAdministration xmlns="http://hl7.org/fhir">
            <meta>
               <profile value="https://www.medizininformatik-initiative.de/fhir/core/modul-medikation/StructureDefinition/MedicationAdministration"></profile>
            </meta>
            <identifier>
               <system value="http://umontreal.ca/prescriptions"></system>
               <value value="24463507_3"></value>
            </identifier>
            <status value="completed"></status>
            <medicationReference>
               <reference value="urn:uuid:a9a8d3a5-3231-41e0-8b76-76da978fe706"></reference>
            </medicationReference>
            <subject>
               <reference value="10076958"></reference>
            </subject>
            <context>
               <reference value="24463507"></reference>
            </context>
            <effectivePeriod>
               <start value="2113-04-02T00:00:00+00:00"></start>
               <end value="2113-04-03T00:00:00+00:00"></end>
            </effectivePeriod>
         </MedicationAdministration>
      </resource>
      <request>
         <method value="POST"></method>
         <url value="MedicationAdministration"></url>
      </request>
   </entry>
   <entry>
      <resource>
         <MedicationAdministration xmlns="http://hl7.org/fhir">
            <meta>
               <profile value="https://www.medizininformatik-initiative.de/fhir/core/modul-medikation/StructureDefinition/MedicationAdministration"></profile>
            </meta>
            <identifier>
               <system value="http://umontreal.ca/prescriptions"></system>
               <value value="24463507_4"></value>
            </identifier>
            <status value="completed"></status>
            <medicationReference>
               <reference value="urn:uuid:a9a8d3a5-3231-41e0-8b76-76da978fe706"></reference>
            </medicationReference>
            <subject>
               <reference value="10076958"></reference>
            </subject>
            <context>
               <reference value="24463507"></reference>
            </context>
            <effectivePeriod>
               <start value="2113-03-31T00:00:00+00:00"></start>
               <end value="2113-04-05T00:00:00+00:00"></end>
            </effectivePeriod>
         </MedicationAdministration>
      </resource>
      <request>
         <method value="POST"></method>
         <url value="MedicationAdministration"></url>
      </request>
   </entry>
   <entry>
      <resource>
         <MedicationAdministration xmlns="http://hl7.org/fhir">
            <meta>
               <profile value="https://www.medizininformatik-initiative.de/fhir/core/modul-medikation/StructureDefinition/MedicationAdministration"></profile>
            </meta>
            <identifier>
               <system value="http://umontreal.ca/prescriptions"></system>
               <value value="24463507_5"></value>
            </identifier>
            <status value="completed"></status>
            <medicationReference>
               <reference value="urn:uuid:a9a8d3a5-3231-41e0-8b76-76da978fe706"></reference>
            </medicationReference>
            <subject>
               <reference value="10076958"></reference>
            </subject>
            <context>
               <reference value="24463507"></reference>
            </context>
            <effectivePeriod>
               <start value="2113-03-31T00:00:00+00:00"></start>
               <end value="2113-04-05T00:00:00+00:00"></end>
            </effectivePeriod>
         </MedicationAdministration>
      </resource>
      <request>
         <method value="POST"></method>
         <url value="MedicationAdministration"></url>
      </request>
   </entry>
   <entry>
      <resource>
         <MedicationAdministration xmlns="http://hl7.org/fhir">
            <meta>
               <profile value="https://www.medizininformatik-initiative.de/fhir/core/modul-medikation/StructureDefinition/MedicationAdministration"></profile>
            </meta>
            <identifier>
               <system value="http://umontreal.ca/prescriptions"></system>
               <value value="24463507_6"></value>
            </identifier>
            <status value="completed"></status>
            <medicationReference>
               <reference value="urn:uuid:a9a8d3a5-3231-41e0-8b76-76da978fe706"></reference>
            </medicationReference>
            <subject>
               <reference value="10076958"></reference>
            </subject>
            <context>
               <reference value="24463507"></reference>
            </context>
            <effectivePeriod>
               <start value="2113-04-01T00:00:00+00:00"></start>
               <end value="2113-04-02T00:00:00+00:00"></end>
            </effectivePeriod>
         </MedicationAdministration>
      </resource>
      <request>
         <method value="POST"></method>
         <url value="MedicationAdministration"></url>
      </request>
   </entry>
   <entry>
      <resource>
         <MedicationAdministration xmlns="http://hl7.org/fhir">
            <meta>
               <profile value="https://www.medizininformatik-initiative.de/fhir/core/modul-medikation/StructureDefinition/MedicationAdministration"></profile>
            </meta>
            <identifier>
               <system value="http://umontreal.ca/prescriptions"></system>
               <value value="24463507_7"></value>
            </identifier>
            <status value="completed"></status>
            <medicationReference>
               <reference value="urn:uuid:a9a8d3a5-3231-41e0-8b76-76da978fe706"></reference>
            </medicationReference>
            <subject>
               <reference value="10076958"></reference>
            </subject>
            <context>
               <reference value="24463507"></reference>
            </context>
            <effectivePeriod>
               <start value="2113-04-01T00:00:00+00:00"></start>
               <end value="2113-04-02T00:00:00+00:00"></end>
            </effectivePeriod>
         </MedicationAdministration>
      </resource>
      <request>
         <method value="POST"></method>
         <url value="MedicationAdministration"></url>
      </request>
   </entry>
   <entry>
      <resource>
         <MedicationAdministration xmlns="http://hl7.org/fhir">
            <meta>
               <profile value="https://www.medizininformatik-initiative.de/fhir/core/modul-medikation/StructureDefinition/MedicationAdministration"></profile>
            </meta>
            <identifier>
               <system value="http://umontreal.ca/prescriptions"></system>
               <value value="24463507_8"></value>
            </identifier>
            <status value="completed"></status>
            <medicationReference>
               <reference value="urn:uuid:a9a8d3a5-3231-41e0-8b76-76da978fe706"></reference>
            </medicationReference>
            <subject>
               <reference value="10076958"></reference>
            </subject>
            <context>
               <reference value="24463507"></reference>
            </context>
            <effectivePeriod>
               <start value="2113-04-02T00:00:00+00:00"></start>
               <end value="2113-04-03T00:00:00+00:00"></end>
            </effectivePeriod>
         </MedicationAdministration>
      </resource>
      <request>
         <method value="POST"></method>
         <url value="MedicationAdministration"></url>
      </request>
   </entry>
   <entry>
      <resource>
         <MedicationAdministration xmlns="http://hl7.org/fhir">
            <meta>
               <profile value="https://www.medizininformatik-initiative.de/fhir/core/modul-medikation/StructureDefinition/MedicationAdministration"></profile>
            </meta>
            <identifier>
               <system value="http://umontreal.ca/prescriptions"></system>
               <value value="24463507_9"></value>
            </identifier>
            <status value="completed"></status>
            <medicationReference>
               <reference value="urn:uuid:a9a8d3a5-3231-41e0-8b76-76da978fe706"></reference>
            </medicationReference>
            <subject>
               <reference value="10076958"></reference>
            </subject>
            <context>
               <reference value="24463507"></reference>
            </context>
            <effectivePeriod>
               <start value="2113-04-02T00:00:00+00:00"></start>
               <end value="2113-04-03T00:00:00+00:00"></end>
            </effectivePeriod>
         </MedicationAdministration>
      </resource>
      <request>
         <method value="POST"></method>
         <url value="MedicationAdministration"></url>
      </request>
   </entry>
   <entry>
      <resource>
         <MedicationAdministration xmlns="http://hl7.org/fhir">
            <meta>
               <profile value="https://www.medizininformatik-initiative.de/fhir/core/modul-medikation/StructureDefinition/MedicationAdministration"></profile>
            </meta>
            <identifier>
               <system value="http://umontreal.ca/prescriptions"></system>
               <value value="24463507_10"></value>
            </identifier>
            <status value="completed"></status>
            <medicationReference>
               <reference value="urn:uuid:a9a8d3a5-3231-41e0-8b76-76da978fe706"></reference>
            </medicationReference>
            <subject>
               <reference value="10076958"></reference>
            </subject>
            <context>
               <reference value="24463507"></reference>
            </context>
            <effectivePeriod>
               <start value="2113-04-02T00:00:00+00:00"></start>
               <end value="2113-04-05T00:00:00+00:00"></end>
            </effectivePeriod>
         </MedicationAdministration>
      </resource>
      <request>
         <method value="POST"></method>
         <url value="MedicationAdministration"></url>
      </request>
   </entry>
   <entry>
      <resource>
         <MedicationAdministration xmlns="http://hl7.org/fhir">
            <meta>
               <profile value="https://www.medizininformatik-initiative.de/fhir/core/modul-medikation/StructureDefinition/MedicationAdministration"></profile>
            </meta>
            <identifier>
               <system value="http://umontreal.ca/prescriptions"></system>
               <value value="24463507_11"></value>
            </identifier>
            <status value="completed"></status>
            <medicationReference>
               <reference value="urn:uuid:a9a8d3a5-3231-41e0-8b76-76da978fe706"></reference>
            </medicationReference>
            <subject>
               <reference value="10076958"></reference>
            </subject>
            <context>
               <reference value="24463507"></reference>
            </context>
            <effectivePeriod>
               <start value="2113-04-02T00:00:00+00:00"></start>
               <end value="2113-04-02T00:00:00+00:00"></end>
            </effectivePeriod>
         </MedicationAdministration>
      </resource>
      <request>
         <method value="POST"></method>
         <url value="MedicationAdministration"></url>
      </request>
   </entry>
   <entry>
      <resource>
         <MedicationAdministration xmlns="http://hl7.org/fhir">
            <meta>
               <profile value="https://www.medizininformatik-initiative.de/fhir/core/modul-medikation/StructureDefinition/MedicationAdministration"></profile>
            </meta>
            <identifier>
               <system value="http://umontreal.ca/prescriptions"></system>
               <value value="24463507_12"></value>
            </identifier>
            <status value="completed"></status>
            <medicationReference>
               <reference value="urn:uuid:a9a8d3a5-3231-41e0-8b76-76da978fe706"></reference>
            </medicationReference>
            <subject>
               <reference value="10076958"></reference>
            </subject>
            <context>
               <reference value="24463507"></reference>
            </context>
            <effectivePeriod>
               <start value="2113-04-01T00:00:00+00:00"></start>
               <end value="2113-04-02T00:00:00+00:00"></end>
            </effectivePeriod>
         </MedicationAdministration>
      </resource>
      <request>
         <method value="POST"></method>
         <url value="MedicationAdministration"></url>
      </request>
   </entry>
   <entry>
      <resource>
         <MedicationAdministration xmlns="http://hl7.org/fhir">
            <meta>
               <profile value="https://www.medizininformatik-initiative.de/fhir/core/modul-medikation/StructureDefinition/MedicationAdministration"></profile>
            </meta>
            <identifier>
               <system value="http://umontreal.ca/prescriptions"></system>
               <value value="24463507_13"></value>
            </identifier>
            <status value="completed"></status>
            <medicationReference>
               <reference value="urn:uuid:a9a8d3a5-3231-41e0-8b76-76da978fe706"></reference>
            </medicationReference>
            <subject>
               <reference value="10076958"></reference>
            </subject>
            <context>
               <reference value="24463507"></reference>
            </context>
            <effectivePeriod>
               <start value="2113-04-01T00:00:00+00:00"></start>
               <end value="2113-04-01T00:00:00+00:00"></end>
            </effectivePeriod>
         </MedicationAdministration>
      </resource>
      <request>
         <method value="POST"></method>
         <url value="MedicationAdministration"></url>
      </request>
   </entry>
   <entry>
      <resource>
         <MedicationAdministration xmlns="http://hl7.org/fhir">
            <meta>
               <profile value="https://www.medizininformatik-initiative.de/fhir/core/modul-medikation/StructureDefinition/MedicationAdministration"></profile>
            </meta>
            <identifier>
               <system value="http://umontreal.ca/prescriptions"></system>
               <value value="24463507_14"></value>
            </identifier>
            <status value="completed"></status>
            <medicationReference>
               <reference value="urn:uuid:a9a8d3a5-3231-41e0-8b76-76da978fe706"></reference>
            </medicationReference>
            <subject>
               <reference value="10076958"></reference>
            </subject>
            <context>
               <reference value="24463507"></reference>
            </context>
            <effectivePeriod>
               <start value="2113-04-04T00:00:00+00:00"></start>
               <end value="2113-04-05T00:00:00+00:00"></end>
            </effectivePeriod>
         </MedicationAdministration>
      </resource>
      <request>
         <method value="POST"></method>
         <url value="MedicationAdministration"></url>
      </request>
   </entry>
   <entry>
      <resource>
         <MedicationAdministration xmlns="http://hl7.org/fhir">
            <meta>
               <profile value="https://www.medizininformatik-initiative.de/fhir/core/modul-medikation/StructureDefinition/MedicationAdministration"></profile>
            </meta>
            <identifier>
               <system value="http://umontreal.ca/prescriptions"></system>
               <value value="24463507_15"></value>
            </identifier>
            <status value="completed"></status>
            <medicationReference>
               <reference value="urn:uuid:a9a8d3a5-3231-41e0-8b76-76da978fe706"></reference>
            </medicationReference>
            <subject>
               <reference value="10076958"></reference>
            </subject>
            <context>
               <reference value="24463507"></reference>
            </context>
            <effectivePeriod>
               <start value="2113-04-03T00:00:00+00:00"></start>
               <end value="2113-04-05T00:00:00+00:00"></end>
            </effectivePeriod>
         </MedicationAdministration>
      </resource>
      <request>
         <method value="POST"></method>
         <url value="MedicationAdministration"></url>
      </request>
   </entry>
   <entry>
      <resource>
         <MedicationAdministration xmlns="http://hl7.org/fhir">
            <meta>
               <profile value="https://www.medizininformatik-initiative.de/fhir/core/modul-medikation/StructureDefinition/MedicationAdministration"></profile>
            </meta>
            <identifier>
               <system value="http://umontreal.ca/prescriptions"></system>
               <value value="24463507_16"></value>
            </identifier>
            <status value="completed"></status>
            <medicationReference>
               <reference value="urn:uuid:a9a8d3a5-3231-41e0-8b76-76da978fe706"></reference>
            </medicationReference>
            <subject>
               <reference value="10076958"></reference>
            </subject>
            <context>
               <reference value="24463507"></reference>
            </context>
            <effectivePeriod>
               <start value="2113-04-04T00:00:00+00:00"></start>
               <end value="2113-04-05T00:00:00+00:00"></end>
            </effectivePeriod>
         </MedicationAdministration>
      </resource>
      <request>
         <method value="POST"></method>
         <url value="MedicationAdministration"></url>
      </request>
   </entry>
   <entry>
      <resource>
         <MedicationAdministration xmlns="http://hl7.org/fhir">
            <meta>
               <profile value="https://www.medizininformatik-initiative.de/fhir/core/modul-medikation/StructureDefinition/MedicationAdministration"></profile>
            </meta>
            <identifier>
               <system value="http://umontreal.ca/prescriptions"></system>
               <value value="24463507_17"></value>
            </identifier>
            <status value="completed"></status>
            <medicationReference>
               <reference value="urn:uuid:a9a8d3a5-3231-41e0-8b76-76da978fe706"></reference>
            </medicationReference>
            <subject>
               <reference value="10076958"></reference>
            </subject>
            <context>
               <reference value="24463507"></reference>
            </context>
            <effectivePeriod>
               <start value="2113-04-04T00:00:00+00:00"></start>
               <end value="2113-04-05T00:00:00+00:00"></end>
            </effectivePeriod>
         </MedicationAdministration>
      </resource>
      <request>
         <method value="POST"></method>
         <url value="MedicationAdministration"></url>
      </request>
   </entry>
   <entry>
      <resource>
         <MedicationAdministration xmlns="http://hl7.org/fhir">
            <meta>
               <profile value="https://www.medizininformatik-initiative.de/fhir/core/modul-medikation/StructureDefinition/MedicationAdministration"></profile>
            </meta>
            <identifier>
               <system value="http://umontreal.ca/prescriptions"></system>
               <value value="24463507_18"></value>
            </identifier>
            <status value="completed"></status>
            <medicationReference>
               <reference value="urn:uuid:a9a8d3a5-3231-41e0-8b76-76da978fe706"></reference>
            </medicationReference>
            <subject>
               <reference value="10076958"></reference>
            </subject>
            <context>
               <reference value="24463507"></reference>
            </context>
            <effectivePeriod>
               <start value="2113-03-31T00:00:00+00:00"></start>
               <end value="2113-04-05T00:00:00+00:00"></end>
            </effectivePeriod>
         </MedicationAdministration>
      </resource>
      <request>
         <method value="POST"></method>
         <url value="MedicationAdministration"></url>
      </request>
   </entry>
   <entry>
      <resource>
         <MedicationAdministration xmlns="http://hl7.org/fhir">
            <meta>
               <profile value="https://www.medizininformatik-initiative.de/fhir/core/modul-medikation/StructureDefinition/MedicationAdministration"></profile>
            </meta>
            <identifier>
               <system value="http://umontreal.ca/prescriptions"></system>
               <value value="24463507_19"></value>
            </identifier>
            <status value="completed"></status>
            <medicationReference>
               <reference value="urn:uuid:a9a8d3a5-3231-41e0-8b76-76da978fe706"></reference>
            </medicationReference>
            <subject>
               <reference value="10076958"></reference>
            </subject>
            <context>
               <reference value="24463507"></reference>
            </context>
            <effectivePeriod>
               <start value="2113-03-31T00:00:00+00:00"></start>
               <end value="2113-04-02T00:00:00+00:00"></end>
            </effectivePeriod>
         </MedicationAdministration>
      </resource>
      <request>
         <method value="POST"></method>
         <url value="MedicationAdministration"></url>
      </request>
   </entry>
   <entry>
      <resource>
         <MedicationAdministration xmlns="http://hl7.org/fhir">
            <meta>
               <profile value="https://www.medizininformatik-initiative.de/fhir/core/modul-medikation/StructureDefinition/MedicationAdministration"></profile>
            </meta>
            <identifier>
               <system value="http://umontreal.ca/prescriptions"></system>
               <value value="24463507_20"></value>
            </identifier>
            <status value="completed"></status>
            <medicationReference>
               <reference value="urn:uuid:a9a8d3a5-3231-41e0-8b76-76da978fe706"></reference>
            </medicationReference>
            <subject>
               <reference value="10076958"></reference>
            </subject>
            <context>
               <reference value="24463507"></reference>
            </context>
            <effectivePeriod>
               <start value="2113-04-01T00:00:00+00:00"></start>
               <end value="2113-04-03T00:00:00+00:00"></end>
            </effectivePeriod>
         </MedicationAdministration>
      </resource>
      <request>
         <method value="POST"></method>
         <url value="MedicationAdministration"></url>
      </request>
   </entry>
   <entry>
      <resource>
         <MedicationAdministration xmlns="http://hl7.org/fhir">
            <meta>
               <profile value="https://www.medizininformatik-initiative.de/fhir/core/modul-medikation/StructureDefinition/MedicationAdministration"></profile>
            </meta>
            <identifier>
               <system value="http://umontreal.ca/prescriptions"></system>
               <value value="24463507_21"></value>
            </identifier>
            <status value="completed"></status>
            <medicationReference>
               <reference value="urn:uuid:a9a8d3a5-3231-41e0-8b76-76da978fe706"></reference>
            </medicationReference>
            <subject>
               <reference value="10076958"></reference>
            </subject>
            <context>
               <reference value="24463507"></reference>
            </context>
            <effectivePeriod>
               <start value="2113-03-31T00:00:00+00:00"></start>
               <end value="2113-04-05T00:00:00+00:00"></end>
            </effectivePeriod>
         </MedicationAdministration>
      </resource>
      <request>
         <method value="POST"></method>
         <url value="MedicationAdministration"></url>
      </request>
   </entry>
   <entry>
      <resource>
         <MedicationAdministration xmlns="http://hl7.org/fhir">
            <meta>
               <profile value="https://www.medizininformatik-initiative.de/fhir/core/modul-medikation/StructureDefinition/MedicationAdministration"></profile>
            </meta>
            <identifier>
               <system value="http://umontreal.ca/prescriptions"></system>
               <value value="24463507_22"></value>
            </identifier>
            <status value="completed"></status>
            <medicationReference>
               <reference value="urn:uuid:a9a8d3a5-3231-41e0-8b76-76da978fe706"></reference>
            </medicationReference>
            <subject>
               <reference value="10076958"></reference>
            </subject>
            <context>
               <reference value="24463507"></reference>
            </context>
            <effectivePeriod>
               <start value="2113-03-31T00:00:00+00:00"></start>
               <end value="2113-04-01T00:00:00+00:00"></end>
            </effectivePeriod>
         </MedicationAdministration>
      </resource>
      <request>
         <method value="POST"></method>
         <url value="MedicationAdministration"></url>
      </request>
   </entry>
   <entry>
      <resource>
         <MedicationAdministration xmlns="http://hl7.org/fhir">
            <meta>
               <profile value="https://www.medizininformatik-initiative.de/fhir/core/modul-medikation/StructureDefinition/MedicationAdministration"></profile>
            </meta>
            <identifier>
               <system value="http://umontreal.ca/prescriptions"></system>
               <value value="24463507_23"></value>
            </identifier>
            <status value="completed"></status>
            <medicationReference>
               <reference value="urn:uuid:a9a8d3a5-3231-41e0-8b76-76da978fe706"></reference>
            </medicationReference>
            <subject>
               <reference value="10076958"></reference>
            </subject>
            <context>
               <reference value="24463507"></reference>
            </context>
            <effectivePeriod>
               <start value="2113-04-05T00:00:00+00:00"></start>
               <end value="2113-04-05T00:00:00+00:00"></end>
            </effectivePeriod>
         </MedicationAdministration>
      </resource>
      <request>
         <method value="POST"></method>
         <url value="MedicationAdministration"></url>
      </request>
   </entry>
   <entry>
      <resource>
         <MedicationAdministration xmlns="http://hl7.org/fhir">
            <meta>
               <profile value="https://www.medizininformatik-initiative.de/fhir/core/modul-medikation/StructureDefinition/MedicationAdministration"></profile>
            </meta>
            <identifier>
               <system value="http://umontreal.ca/prescriptions"></system>
               <value value="24463507_24"></value>
            </identifier>
            <status value="completed"></status>
            <medicationReference>
               <reference value="urn:uuid:a9a8d3a5-3231-41e0-8b76-76da978fe706"></reference>
            </medicationReference>
            <subject>
               <reference value="10076958"></reference>
            </subject>
            <context>
               <reference value="24463507"></reference>
            </context>
            <effectivePeriod>
               <start value="2113-03-31T00:00:00+00:00"></start>
               <end value="2113-04-05T00:00:00+00:00"></end>
            </effectivePeriod>
         </MedicationAdministration>
      </resource>
      <request>
         <method value="POST"></method>
         <url value="MedicationAdministration"></url>
      </request>
   </entry>
   <entry>
      <resource>
         <MedicationAdministration xmlns="http://hl7.org/fhir">
            <meta>
               <profile value="https://www.medizininformatik-initiative.de/fhir/core/modul-medikation/StructureDefinition/MedicationAdministration"></profile>
            </meta>
            <identifier>
               <system value="http://umontreal.ca/prescriptions"></system>
               <value value="24463507_25"></value>
            </identifier>
            <status value="completed"></status>
            <medicationReference>
               <reference value="urn:uuid:a9a8d3a5-3231-41e0-8b76-76da978fe706"></reference>
            </medicationReference>
            <subject>
               <reference value="10076958"></reference>
            </subject>
            <context>
               <reference value="24463507"></reference>
            </context>
            <effectivePeriod>
               <start value="2113-04-05T00:00:00+00:00"></start>
               <end value="2113-04-05T00:00:00+00:00"></end>
            </effectivePeriod>
         </MedicationAdministration>
      </resource>
      <request>
         <method value="POST"></method>
         <url value="MedicationAdministration"></url>
      </request>
   </entry>
   <entry>
      <resource>
         <MedicationAdministration xmlns="http://hl7.org/fhir">
            <meta>
               <profile value="https://www.medizininformatik-initiative.de/fhir/core/modul-medikation/StructureDefinition/MedicationAdministration"></profile>
            </meta>
            <identifier>
               <system value="http://umontreal.ca/prescriptions"></system>
               <value value="24463507_26"></value>
            </identifier>
            <status value="completed"></status>
            <medicationReference>
               <reference value="urn:uuid:a9a8d3a5-3231-41e0-8b76-76da978fe706"></reference>
            </medicationReference>
            <subject>
               <reference value="10076958"></reference>
            </subject>
            <context>
               <reference value="24463507"></reference>
            </context>
            <effectivePeriod>
               <start value="2113-04-01T00:00:00+00:00"></start>
               <end value="2113-04-05T00:00:00+00:00"></end>
            </effectivePeriod>
         </MedicationAdministration>
      </resource>
      <request>
         <method value="POST"></method>
         <url value="MedicationAdministration"></url>
      </request>
   </entry>
   <entry>
      <resource>
         <MedicationAdministration xmlns="http://hl7.org/fhir">
            <meta>
               <profile value="https://www.medizininformatik-initiative.de/fhir/core/modul-medikation/StructureDefinition/MedicationAdministration"></profile>
            </meta>
            <identifier>
               <system value="http://umontreal.ca/prescriptions"></system>
               <value value="24463507_27"></value>
            </identifier>
            <status value="completed"></status>
            <medicationReference>
               <reference value="urn:uuid:a9a8d3a5-3231-41e0-8b76-76da978fe706"></reference>
            </medicationReference>
            <subject>
               <reference value="10076958"></reference>
            </subject>
            <context>
               <reference value="24463507"></reference>
            </context>
            <effectivePeriod>
               <start value="2113-04-01T00:00:00+00:00"></start>
               <end value="2113-04-02T00:00:00+00:00"></end>
            </effectivePeriod>
         </MedicationAdministration>
      </resource>
      <request>
         <method value="POST"></method>
         <url value="MedicationAdministration"></url>
      </request>
   </entry>
   <entry>
      <resource>
         <MedicationAdministration xmlns="http://hl7.org/fhir">
            <meta>
               <profile value="https://www.medizininformatik-initiative.de/fhir/core/modul-medikation/StructureDefinition/MedicationAdministration"></profile>
            </meta>
            <identifier>
               <system value="http://umontreal.ca/prescriptions"></system>
               <value value="24463507_28"></value>
            </identifier>
            <status value="completed"></status>
            <medicationReference>
               <reference value="urn:uuid:a9a8d3a5-3231-41e0-8b76-76da978fe706"></reference>
            </medicationReference>
            <subject>
               <reference value="10076958"></reference>
            </subject>
            <context>
               <reference value="24463507"></reference>
            </context>
            <effectivePeriod>
               <start value="2113-04-01T00:00:00+00:00"></start>
               <end value="2113-04-02T00:00:00+00:00"></end>
            </effectivePeriod>
         </MedicationAdministration>
      </resource>
      <request>
         <method value="POST"></method>
         <url value="MedicationAdministration"></url>
      </request>
   </entry>
   <entry>
      <resource>
         <MedicationAdministration xmlns="http://hl7.org/fhir">
            <meta>
               <profile value="https://www.medizininformatik-initiative.de/fhir/core/modul-medikation/StructureDefinition/MedicationAdministration"></profile>
            </meta>
            <identifier>
               <system value="http://umontreal.ca/prescriptions"></system>
               <value value="24463507_29"></value>
            </identifier>
            <status value="completed"></status>
            <medicationReference>
               <reference value="urn:uuid:a9a8d3a5-3231-41e0-8b76-76da978fe706"></reference>
            </medicationReference>
            <subject>
               <reference value="10076958"></reference>
            </subject>
            <context>
               <reference value="24463507"></reference>
            </context>
            <effectivePeriod>
               <start value="2113-04-05T00:00:00+00:00"></start>
               <end value="2113-04-05T00:00:00+00:00"></end>
            </effectivePeriod>
         </MedicationAdministration>
      </resource>
      <request>
         <method value="POST"></method>
         <url value="MedicationAdministration"></url>
      </request>
   </entry>
   <entry>
      <resource>
         <MedicationAdministration xmlns="http://hl7.org/fhir">
            <meta>
               <profile value="https://www.medizininformatik-initiative.de/fhir/core/modul-medikation/StructureDefinition/MedicationAdministration"></profile>
            </meta>
            <identifier>
               <system value="http://umontreal.ca/prescriptions"></system>
               <value value="24463507_30"></value>
            </identifier>
            <status value="completed"></status>
            <medicationReference>
               <reference value="urn:uuid:a9a8d3a5-3231-41e0-8b76-76da978fe706"></reference>
            </medicationReference>
            <subject>
               <reference value="10076958"></reference>
            </subject>
            <context>
               <reference value="24463507"></reference>
            </context>
            <effectivePeriod>
               <start value="2113-04-01T00:00:00+00:00"></start>
               <end value="2113-04-05T00:00:00+00:00"></end>
            </effectivePeriod>
         </MedicationAdministration>
      </resource>
      <request>
         <method value="POST"></method>
         <url value="MedicationAdministration"></url>
      </request>
   </entry>
   <entry>
      <resource>
         <MedicationAdministration xmlns="http://hl7.org/fhir">
            <meta>
               <profile value="https://www.medizininformatik-initiative.de/fhir/core/modul-medikation/StructureDefinition/MedicationAdministration"></profile>
            </meta>
            <identifier>
               <system value="http://umontreal.ca/prescriptions"></system>
               <value value="24463507_31"></value>
            </identifier>
            <status value="completed"></status>
            <medicationReference>
               <reference value="urn:uuid:a9a8d3a5-3231-41e0-8b76-76da978fe706"></reference>
            </medicationReference>
            <subject>
               <reference value="10076958"></reference>
            </subject>
            <context>
               <reference value="24463507"></reference>
            </context>
            <effectivePeriod>
               <start value="2113-04-03T00:00:00+00:00"></start>
               <end value="2113-04-05T00:00:00+00:00"></end>
            </effectivePeriod>
         </MedicationAdministration>
      </resource>
      <request>
         <method value="POST"></method>
         <url value="MedicationAdministration"></url>
      </request>
   </entry>
   <entry>
      <resource>
         <MedicationAdministration xmlns="http://hl7.org/fhir">
            <meta>
               <profile value="https://www.medizininformatik-initiative.de/fhir/core/modul-medikation/StructureDefinition/MedicationAdministration"></profile>
            </meta>
            <identifier>
               <system value="http://umontreal.ca/prescriptions"></system>
               <value value="24463507_32"></value>
            </identifier>
            <status value="completed"></status>
            <medicationReference>
               <reference value="urn:uuid:a9a8d3a5-3231-41e0-8b76-76da978fe706"></reference>
            </medicationReference>
            <subject>
               <reference value="10076958"></reference>
            </subject>
            <context>
               <reference value="24463507"></reference>
            </context>
            <effectivePeriod>
               <start value="2113-04-01T00:00:00+00:00"></start>
               <end value="2113-04-05T00:00:00+00:00"></end>
            </effectivePeriod>
         </MedicationAdministration>
      </resource>
      <request>
         <method value="POST"></method>
         <url value="MedicationAdministration"></url>
      </request>
   </entry>
   <entry>
      <resource>
         <Observation xmlns="http://hl7.org/fhir">
            <meta>
               <profile value="https://www.umontreal.ca/fhir/core/modul-labor/StructureDefinition/ObservationLab"></profile>
            </meta>
            <identifier>
               <use value="usual"></use>
               <type>
                  <coding>
                     <system value="http://terminology.hl7.org/CodeSystem/v2-0203"></system>
                     <code value="OBI"></code>
                     <display value="Optometrist license number"></display>
                  </coding>
               </type>
               <system value="http://www.umontreal.ca/labevents"></system>
               <value value="838391"></value>
               <assigner>
                  <reference value="10076958"></reference>
               </assigner>
            </identifier>
            <partOf>
               <reference value="24463507"></reference>
            </partOf>
            <status value="final"></status>
            <code>
               <text value="Hematocrit"></text>
            </code>
            <subject>
               <reference value="10076958"></reference>
            </subject>
            <effectiveDateTime value="2113-04-01T00:00:00+00:00"></effectiveDateTime>
            <valueQuantity>
               <value value="34.3"></value>
               <unit value="%"></unit>
            </valueQuantity>
         </Observation>
      </resource>
      <request>
         <method value="POST"></method>
         <url value="Observation"></url>
      </request>
   </entry>
   <entry>
      <resource>
         <Observation xmlns="http://hl7.org/fhir">
            <meta>
               <profile value="https://www.umontreal.ca/fhir/core/modul-labor/StructureDefinition/ObservationLab"></profile>
            </meta>
            <identifier>
               <use value="usual"></use>
               <type>
                  <coding>
                     <system value="http://terminology.hl7.org/CodeSystem/v2-0203"></system>
                     <code value="OBI"></code>
                     <display value="Optometrist license number"></display>
                  </coding>
               </type>
               <system value="http://www.umontreal.ca/labevents"></system>
               <value value="838392"></value>
               <assigner>
                  <reference value="10076958"></reference>
               </assigner>
            </identifier>
            <partOf>
               <reference value="24463507"></reference>
            </partOf>
            <status value="final"></status>
            <code>
               <text value="Hemoglobin"></text>
            </code>
            <subject>
               <reference value="10076958"></reference>
            </subject>
            <effectiveDateTime value="2113-04-01T00:00:00+00:00"></effectiveDateTime>
            <valueQuantity>
               <value value="11.5"></value>
               <unit value="g/dL"></unit>
            </valueQuantity>
         </Observation>
      </resource>
      <request>
         <method value="POST"></method>
         <url value="Observation"></url>
      </request>
   </entry>
   <entry>
      <resource>
         <Observation xmlns="http://hl7.org/fhir">
            <meta>
               <profile value="https://www.umontreal.ca/fhir/core/modul-labor/StructureDefinition/ObservationLab"></profile>
            </meta>
            <identifier>
               <use value="usual"></use>
               <type>
                  <coding>
                     <system value="http://terminology.hl7.org/CodeSystem/v2-0203"></system>
                     <code value="OBI"></code>
                     <display value="Optometrist license number"></display>
                  </coding>
               </type>
               <system value="http://www.umontreal.ca/labevents"></system>
               <value value="838393"></value>
               <assigner>
                  <reference value="10076958"></reference>
               </assigner>
            </identifier>
            <partOf>
               <reference value="24463507"></reference>
            </partOf>
            <status value="final"></status>
            <code>
               <text value="MCH"></text>
            </code>
            <subject>
               <reference value="10076958"></reference>
            </subject>
            <effectiveDateTime value="2113-04-01T00:00:00+00:00"></effectiveDateTime>
            <valueQuantity>
               <value value="31.9"></value>
               <unit value="pg"></unit>
            </valueQuantity>
         </Observation>
      </resource>
      <request>
         <method value="POST"></method>
         <url value="Observation"></url>
      </request>
   </entry>
   <entry>
      <resource>
         <Observation xmlns="http://hl7.org/fhir">
            <meta>
               <profile value="https://www.umontreal.ca/fhir/core/modul-labor/StructureDefinition/ObservationLab"></profile>
            </meta>
            <identifier>
               <use value="usual"></use>
               <type>
                  <coding>
                     <system value="http://terminology.hl7.org/CodeSystem/v2-0203"></system>
                     <code value="OBI"></code>
                     <display value="Optometrist license number"></display>
                  </coding>
               </type>
               <system value="http://www.umontreal.ca/labevents"></system>
               <value value="838394"></value>
               <assigner>
                  <reference value="10076958"></reference>
               </assigner>
            </identifier>
            <partOf>
               <reference value="24463507"></reference>
            </partOf>
            <status value="final"></status>
            <code>
               <text value="MCHC"></text>
            </code>
            <subject>
               <reference value="10076958"></reference>
            </subject>
            <effectiveDateTime value="2113-04-01T00:00:00+00:00"></effectiveDateTime>
            <valueQuantity>
               <value value="33.5"></value>
               <unit value="g/dL"></unit>
            </valueQuantity>
         </Observation>
      </resource>
      <request>
         <method value="POST"></method>
         <url value="Observation"></url>
      </request>
   </entry>
   <entry>
      <resource>
         <Observation xmlns="http://hl7.org/fhir">
            <meta>
               <profile value="https://www.umontreal.ca/fhir/core/modul-labor/StructureDefinition/ObservationLab"></profile>
            </meta>
            <identifier>
               <use value="usual"></use>
               <type>
                  <coding>
                     <system value="http://terminology.hl7.org/CodeSystem/v2-0203"></system>
                     <code value="OBI"></code>
                     <display value="Optometrist license number"></display>
                  </coding>
               </type>
               <system value="http://www.umontreal.ca/labevents"></system>
               <value value="838395"></value>
               <assigner>
                  <reference value="10076958"></reference>
               </assigner>
            </identifier>
            <partOf>
               <reference value="24463507"></reference>
            </partOf>
            <status value="final"></status>
            <code>
               <text value="MCV"></text>
            </code>
            <subject>
               <reference value="10076958"></reference>
            </subject>
            <effectiveDateTime value="2113-04-01T00:00:00+00:00"></effectiveDateTime>
            <valueQuantity>
               <value value="95.0"></value>
               <unit value="fL"></unit>
            </valueQuantity>
         </Observation>
      </resource>
      <request>
         <method value="POST"></method>
         <url value="Observation"></url>
      </request>
   </entry>
   <entry>
      <resource>
         <Observation xmlns="http://hl7.org/fhir">
            <meta>
               <profile value="https://www.umontreal.ca/fhir/core/modul-labor/StructureDefinition/ObservationLab"></profile>
            </meta>
            <identifier>
               <use value="usual"></use>
               <type>
                  <coding>
                     <system value="http://terminology.hl7.org/CodeSystem/v2-0203"></system>
                     <code value="OBI"></code>
                     <display value="Optometrist license number"></display>
                  </coding>
               </type>
               <system value="http://www.umontreal.ca/labevents"></system>
               <value value="838396"></value>
               <assigner>
                  <reference value="10076958"></reference>
               </assigner>
            </identifier>
            <partOf>
               <reference value="24463507"></reference>
            </partOf>
            <status value="final"></status>
            <code>
               <text value="Platelet Count"></text>
            </code>
            <subject>
               <reference value="10076958"></reference>
            </subject>
            <effectiveDateTime value="2113-04-01T00:00:00+00:00"></effectiveDateTime>
            <valueQuantity>
               <value value="197.0"></value>
               <unit value="K/uL"></unit>
            </valueQuantity>
         </Observation>
      </resource>
      <request>
         <method value="POST"></method>
         <url value="Observation"></url>
      </request>
   </entry>
   <entry>
      <resource>
         <Observation xmlns="http://hl7.org/fhir">
            <meta>
               <profile value="https://www.umontreal.ca/fhir/core/modul-labor/StructureDefinition/ObservationLab"></profile>
            </meta>
            <identifier>
               <use value="usual"></use>
               <type>
                  <coding>
                     <system value="http://terminology.hl7.org/CodeSystem/v2-0203"></system>
                     <code value="OBI"></code>
                     <display value="Optometrist license number"></display>
                  </coding>
               </type>
               <system value="http://www.umontreal.ca/labevents"></system>
               <value value="838397"></value>
               <assigner>
                  <reference value="10076958"></reference>
               </assigner>
            </identifier>
            <partOf>
               <reference value="24463507"></reference>
            </partOf>
            <status value="final"></status>
            <code>
               <text value="RDW"></text>
            </code>
            <subject>
               <reference value="10076958"></reference>
            </subject>
            <effectiveDateTime value="2113-04-01T00:00:00+00:00"></effectiveDateTime>
            <valueQuantity>
               <value value="14.0"></value>
               <unit value="%"></unit>
            </valueQuantity>
         </Observation>
      </resource>
      <request>
         <method value="POST"></method>
         <url value="Observation"></url>
      </request>
   </entry>
   <entry>
      <resource>
         <Observation xmlns="http://hl7.org/fhir">
            <meta>
               <profile value="https://www.umontreal.ca/fhir/core/modul-labor/StructureDefinition/ObservationLab"></profile>
            </meta>
            <identifier>
               <use value="usual"></use>
               <type>
                  <coding>
                     <system value="http://terminology.hl7.org/CodeSystem/v2-0203"></system>
                     <code value="OBI"></code>
                     <display value="Optometrist license number"></display>
                  </coding>
               </type>
               <system value="http://www.umontreal.ca/labevents"></system>
               <value value="838398"></value>
               <assigner>
                  <reference value="10076958"></reference>
               </assigner>
            </identifier>
            <partOf>
               <reference value="24463507"></reference>
            </partOf>
            <status value="final"></status>
            <code>
               <text value="Red Blood Cells"></text>
            </code>
            <subject>
               <reference value="10076958"></reference>
            </subject>
            <effectiveDateTime value="2113-04-01T00:00:00+00:00"></effectiveDateTime>
            <valueQuantity>
               <value value="3.6"></value>
               <unit value="m/uL"></unit>
            </valueQuantity>
         </Observation>
      </resource>
      <request>
         <method value="POST"></method>
         <url value="Observation"></url>
      </request>
   </entry>
   <entry>
      <resource>
         <Observation xmlns="http://hl7.org/fhir">
            <meta>
               <profile value="https://www.umontreal.ca/fhir/core/modul-labor/StructureDefinition/ObservationLab"></profile>
            </meta>
            <identifier>
               <use value="usual"></use>
               <type>
                  <coding>
                     <system value="http://terminology.hl7.org/CodeSystem/v2-0203"></system>
                     <code value="OBI"></code>
                     <display value="Optometrist license number"></display>
                  </coding>
               </type>
               <system value="http://www.umontreal.ca/labevents"></system>
               <value value="838399"></value>
               <assigner>
                  <reference value="10076958"></reference>
               </assigner>
            </identifier>
            <partOf>
               <reference value="24463507"></reference>
            </partOf>
            <status value="final"></status>
            <code>
               <text value="White Blood Cells"></text>
            </code>
            <subject>
               <reference value="10076958"></reference>
            </subject>
            <effectiveDateTime value="2113-04-01T00:00:00+00:00"></effectiveDateTime>
            <valueQuantity>
               <value value="13.4"></value>
               <unit value="K/uL"></unit>
            </valueQuantity>
         </Observation>
      </resource>
      <request>
         <method value="POST"></method>
         <url value="Observation"></url>
      </request>
   </entry>
   <entry>
      <resource>
         <Observation xmlns="http://hl7.org/fhir">
            <meta>
               <profile value="https://www.umontreal.ca/fhir/core/modul-labor/StructureDefinition/ObservationLab"></profile>
            </meta>
            <identifier>
               <use value="usual"></use>
               <type>
                  <coding>
                     <system value="http://terminology.hl7.org/CodeSystem/v2-0203"></system>
                     <code value="OBI"></code>
                     <display value="Optometrist license number"></display>
                  </coding>
               </type>
               <system value="http://www.umontreal.ca/labevents"></system>
               <value value="838400"></value>
               <assigner>
                  <reference value="10076958"></reference>
               </assigner>
            </identifier>
            <partOf>
               <reference value="24463507"></reference>
            </partOf>
            <status value="final"></status>
            <code>
               <text value="RDW-SD"></text>
            </code>
            <subject>
               <reference value="10076958"></reference>
            </subject>
            <effectiveDateTime value="2113-04-01T00:00:00+00:00"></effectiveDateTime>
            <valueQuantity>
               <value value="48.8"></value>
               <unit value="fL"></unit>
            </valueQuantity>
         </Observation>
      </resource>
      <request>
         <method value="POST"></method>
         <url value="Observation"></url>
      </request>
   </entry>
   <entry>
      <resource>
         <Observation xmlns="http://hl7.org/fhir">
            <meta>
               <profile value="https://www.umontreal.ca/fhir/core/modul-labor/StructureDefinition/ObservationLab"></profile>
            </meta>
            <identifier>
               <use value="usual"></use>
               <type>
                  <coding>
                     <system value="http://terminology.hl7.org/CodeSystem/v2-0203"></system>
                     <code value="OBI"></code>
                     <display value="Optometrist license number"></display>
                  </coding>
               </type>
               <system value="http://www.umontreal.ca/labevents"></system>
               <value value="838401"></value>
               <assigner>
                  <reference value="10076958"></reference>
               </assigner>
            </identifier>
            <partOf>
               <reference value="24463507"></reference>
            </partOf>
            <status value="final"></status>
            <code>
               <text value="Anion Gap"></text>
            </code>
            <subject>
               <reference value="10076958"></reference>
            </subject>
            <effectiveDateTime value="2113-04-01T00:00:00+00:00"></effectiveDateTime>
            <valueQuantity>
               <value value="16.0"></value>
               <unit value="mEq/L"></unit>
            </valueQuantity>
         </Observation>
      </resource>
      <request>
         <method value="POST"></method>
         <url value="Observation"></url>
      </request>
   </entry>
   <entry>
      <resource>
         <Observation xmlns="http://hl7.org/fhir">
            <meta>
               <profile value="https://www.umontreal.ca/fhir/core/modul-labor/StructureDefinition/ObservationLab"></profile>
            </meta>
            <identifier>
               <use value="usual"></use>
               <type>
                  <coding>
                     <system value="http://terminology.hl7.org/CodeSystem/v2-0203"></system>
                     <code value="OBI"></code>
                     <display value="Optometrist license number"></display>
                  </coding>
               </type>
               <system value="http://www.umontreal.ca/labevents"></system>
               <value value="838402"></value>
               <assigner>
                  <reference value="10076958"></reference>
               </assigner>
            </identifier>
            <partOf>
               <reference value="24463507"></reference>
            </partOf>
            <status value="final"></status>
            <code>
               <text value="Bicarbonate"></text>
            </code>
            <subject>
               <reference value="10076958"></reference>
            </subject>
            <effectiveDateTime value="2113-04-01T00:00:00+00:00"></effectiveDateTime>
            <valueQuantity>
               <value value="27.0"></value>
               <unit value="mEq/L"></unit>
            </valueQuantity>
         </Observation>
      </resource>
      <request>
         <method value="POST"></method>
         <url value="Observation"></url>
      </request>
   </entry>
   <entry>
      <resource>
         <Observation xmlns="http://hl7.org/fhir">
            <meta>
               <profile value="https://www.umontreal.ca/fhir/core/modul-labor/StructureDefinition/ObservationLab"></profile>
            </meta>
            <identifier>
               <use value="usual"></use>
               <type>
                  <coding>
                     <system value="http://terminology.hl7.org/CodeSystem/v2-0203"></system>
                     <code value="OBI"></code>
                     <display value="Optometrist license number"></display>
                  </coding>
               </type>
               <system value="http://www.umontreal.ca/labevents"></system>
               <value value="838403"></value>
               <assigner>
                  <reference value="10076958"></reference>
               </assigner>
            </identifier>
            <partOf>
               <reference value="24463507"></reference>
            </partOf>
            <status value="final"></status>
            <code>
               <text value="Calcium, Total"></text>
            </code>
            <subject>
               <reference value="10076958"></reference>
            </subject>
            <effectiveDateTime value="2113-04-01T00:00:00+00:00"></effectiveDateTime>
            <valueQuantity>
               <value value="9.0"></value>
               <unit value="mg/dL"></unit>
            </valueQuantity>
         </Observation>
      </resource>
      <request>
         <method value="POST"></method>
         <url value="Observation"></url>
      </request>
   </entry>
   <entry>
      <resource>
         <Observation xmlns="http://hl7.org/fhir">
            <meta>
               <profile value="https://www.umontreal.ca/fhir/core/modul-labor/StructureDefinition/ObservationLab"></profile>
            </meta>
            <identifier>
               <use value="usual"></use>
               <type>
                  <coding>
                     <system value="http://terminology.hl7.org/CodeSystem/v2-0203"></system>
                     <code value="OBI"></code>
                     <display value="Optometrist license number"></display>
                  </coding>
               </type>
               <system value="http://www.umontreal.ca/labevents"></system>
               <value value="838404"></value>
               <assigner>
                  <reference value="10076958"></reference>
               </assigner>
            </identifier>
            <partOf>
               <reference value="24463507"></reference>
            </partOf>
            <status value="final"></status>
            <code>
               <text value="Chloride"></text>
            </code>
            <subject>
               <reference value="10076958"></reference>
            </subject>
            <effectiveDateTime value="2113-04-01T00:00:00+00:00"></effectiveDateTime>
            <valueQuantity>
               <value value="97.0"></value>
               <unit value="mEq/L"></unit>
            </valueQuantity>
         </Observation>
      </resource>
      <request>
         <method value="POST"></method>
         <url value="Observation"></url>
      </request>
   </entry>
   <entry>
      <resource>
         <Observation xmlns="http://hl7.org/fhir">
            <meta>
               <profile value="https://www.umontreal.ca/fhir/core/modul-labor/StructureDefinition/ObservationLab"></profile>
            </meta>
            <identifier>
               <use value="usual"></use>
               <type>
                  <coding>
                     <system value="http://terminology.hl7.org/CodeSystem/v2-0203"></system>
                     <code value="OBI"></code>
                     <display value="Optometrist license number"></display>
                  </coding>
               </type>
               <system value="http://www.umontreal.ca/labevents"></system>
               <value value="838405"></value>
               <assigner>
                  <reference value="10076958"></reference>
               </assigner>
            </identifier>
            <partOf>
               <reference value="24463507"></reference>
            </partOf>
            <status value="final"></status>
            <code>
               <text value="Creatinine"></text>
            </code>
            <subject>
               <reference value="10076958"></reference>
            </subject>
            <effectiveDateTime value="2113-04-01T00:00:00+00:00"></effectiveDateTime>
            <valueQuantity>
               <value value="0.7"></value>
               <unit value="mg/dL"></unit>
            </valueQuantity>
         </Observation>
      </resource>
      <request>
         <method value="POST"></method>
         <url value="Observation"></url>
      </request>
   </entry>
   <entry>
      <resource>
         <Observation xmlns="http://hl7.org/fhir">
            <meta>
               <profile value="https://www.umontreal.ca/fhir/core/modul-labor/StructureDefinition/ObservationLab"></profile>
            </meta>
            <identifier>
               <use value="usual"></use>
               <type>
                  <coding>
                     <system value="http://terminology.hl7.org/CodeSystem/v2-0203"></system>
                     <code value="OBI"></code>
                     <display value="Optometrist license number"></display>
                  </coding>
               </type>
               <system value="http://www.umontreal.ca/labevents"></system>
               <value value="838407"></value>
               <assigner>
                  <reference value="10076958"></reference>
               </assigner>
            </identifier>
            <partOf>
               <reference value="24463507"></reference>
            </partOf>
            <status value="final"></status>
            <code>
               <text value="Glucose"></text>
            </code>
            <subject>
               <reference value="10076958"></reference>
            </subject>
            <effectiveDateTime value="2113-04-01T00:00:00+00:00"></effectiveDateTime>
            <valueQuantity>
               <value value="120.0"></value>
               <unit value="mg/dL"></unit>
            </valueQuantity>
            <note>
               <text value="IF FASTING, 70-100 NORMAL, &gt;125 PROVISIONAL DIABETES."></text>
            </note>
         </Observation>
      </resource>
      <request>
         <method value="POST"></method>
         <url value="Observation"></url>
      </request>
   </entry>
   <entry>
      <resource>
         <Observation xmlns="http://hl7.org/fhir">
            <meta>
               <profile value="https://www.umontreal.ca/fhir/core/modul-labor/StructureDefinition/ObservationLab"></profile>
            </meta>
            <identifier>
               <use value="usual"></use>
               <type>
                  <coding>
                     <system value="http://terminology.hl7.org/CodeSystem/v2-0203"></system>
                     <code value="OBI"></code>
                     <display value="Optometrist license number"></display>
                  </coding>
               </type>
               <system value="http://www.umontreal.ca/labevents"></system>
               <value value="838408"></value>
               <assigner>
                  <reference value="10076958"></reference>
               </assigner>
            </identifier>
            <partOf>
               <reference value="24463507"></reference>
            </partOf>
            <status value="final"></status>
            <code>
               <text value="Magnesium"></text>
            </code>
            <subject>
               <reference value="10076958"></reference>
            </subject>
            <effectiveDateTime value="2113-04-01T00:00:00+00:00"></effectiveDateTime>
            <valueQuantity>
               <value value="1.5"></value>
               <unit value="mg/dL"></unit>
            </valueQuantity>
         </Observation>
      </resource>
      <request>
         <method value="POST"></method>
         <url value="Observation"></url>
      </request>
   </entry>
   <entry>
      <resource>
         <Observation xmlns="http://hl7.org/fhir">
            <meta>
               <profile value="https://www.umontreal.ca/fhir/core/modul-labor/StructureDefinition/ObservationLab"></profile>
            </meta>
            <identifier>
               <use value="usual"></use>
               <type>
                  <coding>
                     <system value="http://terminology.hl7.org/CodeSystem/v2-0203"></system>
                     <code value="OBI"></code>
                     <display value="Optometrist license number"></display>
                  </coding>
               </type>
               <system value="http://www.umontreal.ca/labevents"></system>
               <value value="838409"></value>
               <assigner>
                  <reference value="10076958"></reference>
               </assigner>
            </identifier>
            <partOf>
               <reference value="24463507"></reference>
            </partOf>
            <status value="final"></status>
            <code>
               <text value="Phosphate"></text>
            </code>
            <subject>
               <reference value="10076958"></reference>
            </subject>
            <effectiveDateTime value="2113-04-01T00:00:00+00:00"></effectiveDateTime>
            <valueQuantity>
               <value value="3.3"></value>
               <unit value="mg/dL"></unit>
            </valueQuantity>
         </Observation>
      </resource>
      <request>
         <method value="POST"></method>
         <url value="Observation"></url>
      </request>
   </entry>
   <entry>
      <resource>
         <Observation xmlns="http://hl7.org/fhir">
            <meta>
               <profile value="https://www.umontreal.ca/fhir/core/modul-labor/StructureDefinition/ObservationLab"></profile>
            </meta>
            <identifier>
               <use value="usual"></use>
               <type>
                  <coding>
                     <system value="http://terminology.hl7.org/CodeSystem/v2-0203"></system>
                     <code value="OBI"></code>
                     <display value="Optometrist license number"></display>
                  </coding>
               </type>
               <system value="http://www.umontreal.ca/labevents"></system>
               <value value="838410"></value>
               <assigner>
                  <reference value="10076958"></reference>
               </assigner>
            </identifier>
            <partOf>
               <reference value="24463507"></reference>
            </partOf>
            <status value="final"></status>
            <code>
               <text value="Potassium"></text>
            </code>
            <subject>
               <reference value="10076958"></reference>
            </subject>
            <effectiveDateTime value="2113-04-01T00:00:00+00:00"></effectiveDateTime>
            <valueQuantity>
               <value value="3.7"></value>
               <unit value="mEq/L"></unit>
            </valueQuantity>
         </Observation>
      </resource>
      <request>
         <method value="POST"></method>
         <url value="Observation"></url>
      </request>
   </entry>
   <entry>
      <resource>
         <Observation xmlns="http://hl7.org/fhir">
            <meta>
               <profile value="https://www.umontreal.ca/fhir/core/modul-labor/StructureDefinition/ObservationLab"></profile>
            </meta>
            <identifier>
               <use value="usual"></use>
               <type>
                  <coding>
                     <system value="http://terminology.hl7.org/CodeSystem/v2-0203"></system>
                     <code value="OBI"></code>
                     <display value="Optometrist license number"></display>
                  </coding>
               </type>
               <system value="http://www.umontreal.ca/labevents"></system>
               <value value="838411"></value>
               <assigner>
                  <reference value="10076958"></reference>
               </assigner>
            </identifier>
            <partOf>
               <reference value="24463507"></reference>
            </partOf>
            <status value="final"></status>
            <code>
               <text value="Sodium"></text>
            </code>
            <subject>
               <reference value="10076958"></reference>
            </subject>
            <effectiveDateTime value="2113-04-01T00:00:00+00:00"></effectiveDateTime>
            <valueQuantity>
               <value value="136.0"></value>
               <unit value="mEq/L"></unit>
            </valueQuantity>
         </Observation>
      </resource>
      <request>
         <method value="POST"></method>
         <url value="Observation"></url>
      </request>
   </entry>
   <entry>
      <resource>
         <Observation xmlns="http://hl7.org/fhir">
            <meta>
               <profile value="https://www.umontreal.ca/fhir/core/modul-labor/StructureDefinition/ObservationLab"></profile>
            </meta>
            <identifier>
               <use value="usual"></use>
               <type>
                  <coding>
                     <system value="http://terminology.hl7.org/CodeSystem/v2-0203"></system>
                     <code value="OBI"></code>
                     <display value="Optometrist license number"></display>
                  </coding>
               </type>
               <system value="http://www.umontreal.ca/labevents"></system>
               <value value="838412"></value>
               <assigner>
                  <reference value="10076958"></reference>
               </assigner>
            </identifier>
            <partOf>
               <reference value="24463507"></reference>
            </partOf>
            <status value="final"></status>
            <code>
               <text value="Urea Nitrogen"></text>
            </code>
            <subject>
               <reference value="10076958"></reference>
            </subject>
            <effectiveDateTime value="2113-04-01T00:00:00+00:00"></effectiveDateTime>
            <valueQuantity>
               <value value="11.0"></value>
               <unit value="mg/dL"></unit>
            </valueQuantity>
         </Observation>
      </resource>
      <request>
         <method value="POST"></method>
         <url value="Observation"></url>
      </request>
   </entry>
   <entry>
      <resource>
         <Observation xmlns="http://hl7.org/fhir">
            <meta>
               <profile value="https://www.umontreal.ca/fhir/core/modul-labor/StructureDefinition/ObservationLab"></profile>
            </meta>
            <identifier>
               <use value="usual"></use>
               <type>
                  <coding>
                     <system value="http://terminology.hl7.org/CodeSystem/v2-0203"></system>
                     <code value="OBI"></code>
                     <display value="Optometrist license number"></display>
                  </coding>
               </type>
               <system value="http://www.umontreal.ca/labevents"></system>
               <value value="838413"></value>
               <assigner>
                  <reference value="10076958"></reference>
               </assigner>
            </identifier>
            <partOf>
               <reference value="24463507"></reference>
            </partOf>
            <status value="final"></status>
            <code>
               <text value="Anion Gap"></text>
            </code>
            <subject>
               <reference value="10076958"></reference>
            </subject>
            <effectiveDateTime value="2113-04-02T00:00:00+00:00"></effectiveDateTime>
            <valueQuantity>
               <value value="13.0"></value>
               <unit value="mEq/L"></unit>
            </valueQuantity>
         </Observation>
      </resource>
      <request>
         <method value="POST"></method>
         <url value="Observation"></url>
      </request>
   </entry>
   <entry>
      <resource>
         <Observation xmlns="http://hl7.org/fhir">
            <meta>
               <profile value="https://www.umontreal.ca/fhir/core/modul-labor/StructureDefinition/ObservationLab"></profile>
            </meta>
            <identifier>
               <use value="usual"></use>
               <type>
                  <coding>
                     <system value="http://terminology.hl7.org/CodeSystem/v2-0203"></system>
                     <code value="OBI"></code>
                     <display value="Optometrist license number"></display>
                  </coding>
               </type>
               <system value="http://www.umontreal.ca/labevents"></system>
               <value value="838414"></value>
               <assigner>
                  <reference value="10076958"></reference>
               </assigner>
            </identifier>
            <partOf>
               <reference value="24463507"></reference>
            </partOf>
            <status value="final"></status>
            <code>
               <text value="Bicarbonate"></text>
            </code>
            <subject>
               <reference value="10076958"></reference>
            </subject>
            <effectiveDateTime value="2113-04-02T00:00:00+00:00"></effectiveDateTime>
            <valueQuantity>
               <value value="26.0"></value>
               <unit value="mEq/L"></unit>
            </valueQuantity>
         </Observation>
      </resource>
      <request>
         <method value="POST"></method>
         <url value="Observation"></url>
      </request>
   </entry>
   <entry>
      <resource>
         <Observation xmlns="http://hl7.org/fhir">
            <meta>
               <profile value="https://www.umontreal.ca/fhir/core/modul-labor/StructureDefinition/ObservationLab"></profile>
            </meta>
            <identifier>
               <use value="usual"></use>
               <type>
                  <coding>
                     <system value="http://terminology.hl7.org/CodeSystem/v2-0203"></system>
                     <code value="OBI"></code>
                     <display value="Optometrist license number"></display>
                  </coding>
               </type>
               <system value="http://www.umontreal.ca/labevents"></system>
               <value value="838415"></value>
               <assigner>
                  <reference value="10076958"></reference>
               </assigner>
            </identifier>
            <partOf>
               <reference value="24463507"></reference>
            </partOf>
            <status value="final"></status>
            <code>
               <text value="Calcium, Total"></text>
            </code>
            <subject>
               <reference value="10076958"></reference>
            </subject>
            <effectiveDateTime value="2113-04-02T00:00:00+00:00"></effectiveDateTime>
            <valueQuantity>
               <value value="8.7"></value>
               <unit value="mg/dL"></unit>
            </valueQuantity>
         </Observation>
      </resource>
      <request>
         <method value="POST"></method>
         <url value="Observation"></url>
      </request>
   </entry>
   <entry>
      <resource>
         <Observation xmlns="http://hl7.org/fhir">
            <meta>
               <profile value="https://www.umontreal.ca/fhir/core/modul-labor/StructureDefinition/ObservationLab"></profile>
            </meta>
            <identifier>
               <use value="usual"></use>
               <type>
                  <coding>
                     <system value="http://terminology.hl7.org/CodeSystem/v2-0203"></system>
                     <code value="OBI"></code>
                     <display value="Optometrist license number"></display>
                  </coding>
               </type>
               <system value="http://www.umontreal.ca/labevents"></system>
               <value value="838416"></value>
               <assigner>
                  <reference value="10076958"></reference>
               </assigner>
            </identifier>
            <partOf>
               <reference value="24463507"></reference>
            </partOf>
            <status value="final"></status>
            <code>
               <text value="Chloride"></text>
            </code>
            <subject>
               <reference value="10076958"></reference>
            </subject>
            <effectiveDateTime value="2113-04-02T00:00:00+00:00"></effectiveDateTime>
            <valueQuantity>
               <value value="96.0"></value>
               <unit value="mEq/L"></unit>
            </valueQuantity>
         </Observation>
      </resource>
      <request>
         <method value="POST"></method>
         <url value="Observation"></url>
      </request>
   </entry>
   <entry>
      <resource>
         <Observation xmlns="http://hl7.org/fhir">
            <meta>
               <profile value="https://www.umontreal.ca/fhir/core/modul-labor/StructureDefinition/ObservationLab"></profile>
            </meta>
            <identifier>
               <use value="usual"></use>
               <type>
                  <coding>
                     <system value="http://terminology.hl7.org/CodeSystem/v2-0203"></system>
                     <code value="OBI"></code>
                     <display value="Optometrist license number"></display>
                  </coding>
               </type>
               <system value="http://www.umontreal.ca/labevents"></system>
               <value value="838417"></value>
               <assigner>
                  <reference value="10076958"></reference>
               </assigner>
            </identifier>
            <partOf>
               <reference value="24463507"></reference>
            </partOf>
            <status value="final"></status>
            <code>
               <text value="Creatine Kinase (CK)"></text>
            </code>
            <subject>
               <reference value="10076958"></reference>
            </subject>
            <effectiveDateTime value="2113-04-02T00:00:00+00:00"></effectiveDateTime>
            <valueQuantity>
               <value value="315.0"></value>
               <unit value="IU/L"></unit>
            </valueQuantity>
            <note>
               <text value="NEW REFERENCE INTERVAL AS OF ___;UPPER LIMIT (97.5TH %ILE) VARIES WITH ANCESTRY AND GENDER (MALE/FEMALE);WHITES 322/201  BLACKS 801/414  ASIANS 641/313."></text>
            </note>
         </Observation>
      </resource>
      <request>
         <method value="POST"></method>
         <url value="Observation"></url>
      </request>
   </entry>
   <entry>
      <resource>
         <Observation xmlns="http://hl7.org/fhir">
            <meta>
               <profile value="https://www.umontreal.ca/fhir/core/modul-labor/StructureDefinition/ObservationLab"></profile>
            </meta>
            <identifier>
               <use value="usual"></use>
               <type>
                  <coding>
                     <system value="http://terminology.hl7.org/CodeSystem/v2-0203"></system>
                     <code value="OBI"></code>
                     <display value="Optometrist license number"></display>
                  </coding>
               </type>
               <system value="http://www.umontreal.ca/labevents"></system>
               <value value="838418"></value>
               <assigner>
                  <reference value="10076958"></reference>
               </assigner>
            </identifier>
            <partOf>
               <reference value="24463507"></reference>
            </partOf>
            <status value="final"></status>
            <code>
               <text value="Creatine Kinase, MB Isoenzyme"></text>
            </code>
            <subject>
               <reference value="10076958"></reference>
            </subject>
            <effectiveDateTime value="2113-04-02T00:00:00+00:00"></effectiveDateTime>
            <valueQuantity>
               <value value="2.0"></value>
               <unit value="ng/mL"></unit>
            </valueQuantity>
         </Observation>
      </resource>
      <request>
         <method value="POST"></method>
         <url value="Observation"></url>
      </request>
   </entry>
   <entry>
      <resource>
         <Observation xmlns="http://hl7.org/fhir">
            <meta>
               <profile value="https://www.umontreal.ca/fhir/core/modul-labor/StructureDefinition/ObservationLab"></profile>
            </meta>
            <identifier>
               <use value="usual"></use>
               <type>
                  <coding>
                     <system value="http://terminology.hl7.org/CodeSystem/v2-0203"></system>
                     <code value="OBI"></code>
                     <display value="Optometrist license number"></display>
                  </coding>
               </type>
               <system value="http://www.umontreal.ca/labevents"></system>
               <value value="838419"></value>
               <assigner>
                  <reference value="10076958"></reference>
               </assigner>
            </identifier>
            <partOf>
               <reference value="24463507"></reference>
            </partOf>
            <status value="final"></status>
            <code>
               <text value="Creatinine"></text>
            </code>
            <subject>
               <reference value="10076958"></reference>
            </subject>
            <effectiveDateTime value="2113-04-02T00:00:00+00:00"></effectiveDateTime>
            <valueQuantity>
               <value value="0.5"></value>
               <unit value="mg/dL"></unit>
            </valueQuantity>
         </Observation>
      </resource>
      <request>
         <method value="POST"></method>
         <url value="Observation"></url>
      </request>
   </entry>
   <entry>
      <resource>
         <Observation xmlns="http://hl7.org/fhir">
            <meta>
               <profile value="https://www.umontreal.ca/fhir/core/modul-labor/StructureDefinition/ObservationLab"></profile>
            </meta>
            <identifier>
               <use value="usual"></use>
               <type>
                  <coding>
                     <system value="http://terminology.hl7.org/CodeSystem/v2-0203"></system>
                     <code value="OBI"></code>
                     <display value="Optometrist license number"></display>
                  </coding>
               </type>
               <system value="http://www.umontreal.ca/labevents"></system>
               <value value="838420"></value>
               <assigner>
                  <reference value="10076958"></reference>
               </assigner>
            </identifier>
            <partOf>
               <reference value="24463507"></reference>
            </partOf>
            <status value="final"></status>
            <code>
               <text value="Glucose"></text>
            </code>
            <subject>
               <reference value="10076958"></reference>
            </subject>
            <effectiveDateTime value="2113-04-02T00:00:00+00:00"></effectiveDateTime>
            <valueQuantity>
               <value value="100.0"></value>
               <unit value="mg/dL"></unit>
            </valueQuantity>
            <note>
               <text value="IF FASTING, 70-100 NORMAL, &gt;125 PROVISIONAL DIABETES."></text>
            </note>
         </Observation>
      </resource>
      <request>
         <method value="POST"></method>
         <url value="Observation"></url>
      </request>
   </entry>
   <entry>
      <resource>
         <Observation xmlns="http://hl7.org/fhir">
            <meta>
               <profile value="https://www.umontreal.ca/fhir/core/modul-labor/StructureDefinition/ObservationLab"></profile>
            </meta>
            <identifier>
               <use value="usual"></use>
               <type>
                  <coding>
                     <system value="http://terminology.hl7.org/CodeSystem/v2-0203"></system>
                     <code value="OBI"></code>
                     <display value="Optometrist license number"></display>
                  </coding>
               </type>
               <system value="http://www.umontreal.ca/labevents"></system>
               <value value="838421"></value>
               <assigner>
                  <reference value="10076958"></reference>
               </assigner>
            </identifier>
            <partOf>
               <reference value="24463507"></reference>
            </partOf>
            <status value="final"></status>
            <code>
               <text value="Magnesium"></text>
            </code>
            <subject>
               <reference value="10076958"></reference>
            </subject>
            <effectiveDateTime value="2113-04-02T00:00:00+00:00"></effectiveDateTime>
            <valueQuantity>
               <value value="1.8"></value>
               <unit value="mg/dL"></unit>
            </valueQuantity>
         </Observation>
      </resource>
      <request>
         <method value="POST"></method>
         <url value="Observation"></url>
      </request>
   </entry>
   <entry>
      <resource>
         <Observation xmlns="http://hl7.org/fhir">
            <meta>
               <profile value="https://www.umontreal.ca/fhir/core/modul-labor/StructureDefinition/ObservationLab"></profile>
            </meta>
            <identifier>
               <use value="usual"></use>
               <type>
                  <coding>
                     <system value="http://terminology.hl7.org/CodeSystem/v2-0203"></system>
                     <code value="OBI"></code>
                     <display value="Optometrist license number"></display>
                  </coding>
               </type>
               <system value="http://www.umontreal.ca/labevents"></system>
               <value value="838422"></value>
               <assigner>
                  <reference value="10076958"></reference>
               </assigner>
            </identifier>
            <partOf>
               <reference value="24463507"></reference>
            </partOf>
            <status value="final"></status>
            <code>
               <text value="Potassium"></text>
            </code>
            <subject>
               <reference value="10076958"></reference>
            </subject>
            <effectiveDateTime value="2113-04-02T00:00:00+00:00"></effectiveDateTime>
            <valueQuantity>
               <value value="3.4"></value>
               <unit value="mEq/L"></unit>
            </valueQuantity>
         </Observation>
      </resource>
      <request>
         <method value="POST"></method>
         <url value="Observation"></url>
      </request>
   </entry>
   <entry>
      <resource>
         <Observation xmlns="http://hl7.org/fhir">
            <meta>
               <profile value="https://www.umontreal.ca/fhir/core/modul-labor/StructureDefinition/ObservationLab"></profile>
            </meta>
            <identifier>
               <use value="usual"></use>
               <type>
                  <coding>
                     <system value="http://terminology.hl7.org/CodeSystem/v2-0203"></system>
                     <code value="OBI"></code>
                     <display value="Optometrist license number"></display>
                  </coding>
               </type>
               <system value="http://www.umontreal.ca/labevents"></system>
               <value value="838423"></value>
               <assigner>
                  <reference value="10076958"></reference>
               </assigner>
            </identifier>
            <partOf>
               <reference value="24463507"></reference>
            </partOf>
            <status value="final"></status>
            <code>
               <text value="Sodium"></text>
            </code>
            <subject>
               <reference value="10076958"></reference>
            </subject>
            <effectiveDateTime value="2113-04-02T00:00:00+00:00"></effectiveDateTime>
            <valueQuantity>
               <value value="132.0"></value>
               <unit value="mEq/L"></unit>
            </valueQuantity>
         </Observation>
      </resource>
      <request>
         <method value="POST"></method>
         <url value="Observation"></url>
      </request>
   </entry>
   <entry>
      <resource>
         <Observation xmlns="http://hl7.org/fhir">
            <meta>
               <profile value="https://www.umontreal.ca/fhir/core/modul-labor/StructureDefinition/ObservationLab"></profile>
            </meta>
            <identifier>
               <use value="usual"></use>
               <type>
                  <coding>
                     <system value="http://terminology.hl7.org/CodeSystem/v2-0203"></system>
                     <code value="OBI"></code>
                     <display value="Optometrist license number"></display>
                  </coding>
               </type>
               <system value="http://www.umontreal.ca/labevents"></system>
               <value value="838425"></value>
               <assigner>
                  <reference value="10076958"></reference>
               </assigner>
            </identifier>
            <partOf>
               <reference value="24463507"></reference>
            </partOf>
            <status value="final"></status>
            <code>
               <text value="Urea Nitrogen"></text>
            </code>
            <subject>
               <reference value="10076958"></reference>
            </subject>
            <effectiveDateTime value="2113-04-02T00:00:00+00:00"></effectiveDateTime>
            <valueQuantity>
               <value value="9.0"></value>
               <unit value="mg/dL"></unit>
            </valueQuantity>
         </Observation>
      </resource>
      <request>
         <method value="POST"></method>
         <url value="Observation"></url>
      </request>
   </entry>
   <entry>
      <resource>
         <Observation xmlns="http://hl7.org/fhir">
            <meta>
               <profile value="https://www.umontreal.ca/fhir/core/modul-labor/StructureDefinition/ObservationLab"></profile>
            </meta>
            <identifier>
               <use value="usual"></use>
               <type>
                  <coding>
                     <system value="http://terminology.hl7.org/CodeSystem/v2-0203"></system>
                     <code value="OBI"></code>
                     <display value="Optometrist license number"></display>
                  </coding>
               </type>
               <system value="http://www.umontreal.ca/labevents"></system>
               <value value="838426"></value>
               <assigner>
                  <reference value="10076958"></reference>
               </assigner>
            </identifier>
            <partOf>
               <reference value="24463507"></reference>
            </partOf>
            <status value="final"></status>
            <code>
               <text value="Hematocrit"></text>
            </code>
            <subject>
               <reference value="10076958"></reference>
            </subject>
            <effectiveDateTime value="2113-04-02T00:00:00+00:00"></effectiveDateTime>
            <valueQuantity>
               <value value="30.8"></value>
               <unit value="%"></unit>
            </valueQuantity>
         </Observation>
      </resource>
      <request>
         <method value="POST"></method>
         <url value="Observation"></url>
      </request>
   </entry>
   <entry>
      <resource>
         <Observation xmlns="http://hl7.org/fhir">
            <meta>
               <profile value="https://www.umontreal.ca/fhir/core/modul-labor/StructureDefinition/ObservationLab"></profile>
            </meta>
            <identifier>
               <use value="usual"></use>
               <type>
                  <coding>
                     <system value="http://terminology.hl7.org/CodeSystem/v2-0203"></system>
                     <code value="OBI"></code>
                     <display value="Optometrist license number"></display>
                  </coding>
               </type>
               <system value="http://www.umontreal.ca/labevents"></system>
               <value value="838427"></value>
               <assigner>
                  <reference value="10076958"></reference>
               </assigner>
            </identifier>
            <partOf>
               <reference value="24463507"></reference>
            </partOf>
            <status value="final"></status>
            <code>
               <text value="Hemoglobin"></text>
            </code>
            <subject>
               <reference value="10076958"></reference>
            </subject>
            <effectiveDateTime value="2113-04-02T00:00:00+00:00"></effectiveDateTime>
            <valueQuantity>
               <value value="10.3"></value>
               <unit value="g/dL"></unit>
            </valueQuantity>
         </Observation>
      </resource>
      <request>
         <method value="POST"></method>
         <url value="Observation"></url>
      </request>
   </entry>
   <entry>
      <resource>
         <Observation xmlns="http://hl7.org/fhir">
            <meta>
               <profile value="https://www.umontreal.ca/fhir/core/modul-labor/StructureDefinition/ObservationLab"></profile>
            </meta>
            <identifier>
               <use value="usual"></use>
               <type>
                  <coding>
                     <system value="http://terminology.hl7.org/CodeSystem/v2-0203"></system>
                     <code value="OBI"></code>
                     <display value="Optometrist license number"></display>
                  </coding>
               </type>
               <system value="http://www.umontreal.ca/labevents"></system>
               <value value="838428"></value>
               <assigner>
                  <reference value="10076958"></reference>
               </assigner>
            </identifier>
            <partOf>
               <reference value="24463507"></reference>
            </partOf>
            <status value="final"></status>
            <code>
               <text value="MCH"></text>
            </code>
            <subject>
               <reference value="10076958"></reference>
            </subject>
            <effectiveDateTime value="2113-04-02T00:00:00+00:00"></effectiveDateTime>
            <valueQuantity>
               <value value="31.5"></value>
               <unit value="pg"></unit>
            </valueQuantity>
         </Observation>
      </resource>
      <request>
         <method value="POST"></method>
         <url value="Observation"></url>
      </request>
   </entry>
   <entry>
      <resource>
         <Observation xmlns="http://hl7.org/fhir">
            <meta>
               <profile value="https://www.umontreal.ca/fhir/core/modul-labor/StructureDefinition/ObservationLab"></profile>
            </meta>
            <identifier>
               <use value="usual"></use>
               <type>
                  <coding>
                     <system value="http://terminology.hl7.org/CodeSystem/v2-0203"></system>
                     <code value="OBI"></code>
                     <display value="Optometrist license number"></display>
                  </coding>
               </type>
               <system value="http://www.umontreal.ca/labevents"></system>
               <value value="838429"></value>
               <assigner>
                  <reference value="10076958"></reference>
               </assigner>
            </identifier>
            <partOf>
               <reference value="24463507"></reference>
            </partOf>
            <status value="final"></status>
            <code>
               <text value="MCHC"></text>
            </code>
            <subject>
               <reference value="10076958"></reference>
            </subject>
            <effectiveDateTime value="2113-04-02T00:00:00+00:00"></effectiveDateTime>
            <valueQuantity>
               <value value="33.4"></value>
               <unit value="g/dL"></unit>
            </valueQuantity>
         </Observation>
      </resource>
      <request>
         <method value="POST"></method>
         <url value="Observation"></url>
      </request>
   </entry>
   <entry>
      <resource>
         <Observation xmlns="http://hl7.org/fhir">
            <meta>
               <profile value="https://www.umontreal.ca/fhir/core/modul-labor/StructureDefinition/ObservationLab"></profile>
            </meta>
            <identifier>
               <use value="usual"></use>
               <type>
                  <coding>
                     <system value="http://terminology.hl7.org/CodeSystem/v2-0203"></system>
                     <code value="OBI"></code>
                     <display value="Optometrist license number"></display>
                  </coding>
               </type>
               <system value="http://www.umontreal.ca/labevents"></system>
               <value value="838430"></value>
               <assigner>
                  <reference value="10076958"></reference>
               </assigner>
            </identifier>
            <partOf>
               <reference value="24463507"></reference>
            </partOf>
            <status value="final"></status>
            <code>
               <text value="MCV"></text>
            </code>
            <subject>
               <reference value="10076958"></reference>
            </subject>
            <effectiveDateTime value="2113-04-02T00:00:00+00:00"></effectiveDateTime>
            <valueQuantity>
               <value value="94.0"></value>
               <unit value="fL"></unit>
            </valueQuantity>
         </Observation>
      </resource>
      <request>
         <method value="POST"></method>
         <url value="Observation"></url>
      </request>
   </entry>
   <entry>
      <resource>
         <Observation xmlns="http://hl7.org/fhir">
            <meta>
               <profile value="https://www.umontreal.ca/fhir/core/modul-labor/StructureDefinition/ObservationLab"></profile>
            </meta>
            <identifier>
               <use value="usual"></use>
               <type>
                  <coding>
                     <system value="http://terminology.hl7.org/CodeSystem/v2-0203"></system>
                     <code value="OBI"></code>
                     <display value="Optometrist license number"></display>
                  </coding>
               </type>
               <system value="http://www.umontreal.ca/labevents"></system>
               <value value="838431"></value>
               <assigner>
                  <reference value="10076958"></reference>
               </assigner>
            </identifier>
            <partOf>
               <reference value="24463507"></reference>
            </partOf>
            <status value="final"></status>
            <code>
               <text value="Platelet Count"></text>
            </code>
            <subject>
               <reference value="10076958"></reference>
            </subject>
            <effectiveDateTime value="2113-04-02T00:00:00+00:00"></effectiveDateTime>
            <valueQuantity>
               <value value="172.0"></value>
               <unit value="K/uL"></unit>
            </valueQuantity>
         </Observation>
      </resource>
      <request>
         <method value="POST"></method>
         <url value="Observation"></url>
      </request>
   </entry>
   <entry>
      <resource>
         <Observation xmlns="http://hl7.org/fhir">
            <meta>
               <profile value="https://www.umontreal.ca/fhir/core/modul-labor/StructureDefinition/ObservationLab"></profile>
            </meta>
            <identifier>
               <use value="usual"></use>
               <type>
                  <coding>
                     <system value="http://terminology.hl7.org/CodeSystem/v2-0203"></system>
                     <code value="OBI"></code>
                     <display value="Optometrist license number"></display>
                  </coding>
               </type>
               <system value="http://www.umontreal.ca/labevents"></system>
               <value value="838432"></value>
               <assigner>
                  <reference value="10076958"></reference>
               </assigner>
            </identifier>
            <partOf>
               <reference value="24463507"></reference>
            </partOf>
            <status value="final"></status>
            <code>
               <text value="RDW"></text>
            </code>
            <subject>
               <reference value="10076958"></reference>
            </subject>
            <effectiveDateTime value="2113-04-02T00:00:00+00:00"></effectiveDateTime>
            <valueQuantity>
               <value value="14.1"></value>
               <unit value="%"></unit>
            </valueQuantity>
         </Observation>
      </resource>
      <request>
         <method value="POST"></method>
         <url value="Observation"></url>
      </request>
   </entry>
   <entry>
      <resource>
         <Observation xmlns="http://hl7.org/fhir">
            <meta>
               <profile value="https://www.umontreal.ca/fhir/core/modul-labor/StructureDefinition/ObservationLab"></profile>
            </meta>
            <identifier>
               <use value="usual"></use>
               <type>
                  <coding>
                     <system value="http://terminology.hl7.org/CodeSystem/v2-0203"></system>
                     <code value="OBI"></code>
                     <display value="Optometrist license number"></display>
                  </coding>
               </type>
               <system value="http://www.umontreal.ca/labevents"></system>
               <value value="838433"></value>
               <assigner>
                  <reference value="10076958"></reference>
               </assigner>
            </identifier>
            <partOf>
               <reference value="24463507"></reference>
            </partOf>
            <status value="final"></status>
            <code>
               <text value="Red Blood Cells"></text>
            </code>
            <subject>
               <reference value="10076958"></reference>
            </subject>
            <effectiveDateTime value="2113-04-02T00:00:00+00:00"></effectiveDateTime>
            <valueQuantity>
               <value value="3.27"></value>
               <unit value="m/uL"></unit>
            </valueQuantity>
         </Observation>
      </resource>
      <request>
         <method value="POST"></method>
         <url value="Observation"></url>
      </request>
   </entry>
   <entry>
      <resource>
         <Observation xmlns="http://hl7.org/fhir">
            <meta>
               <profile value="https://www.umontreal.ca/fhir/core/modul-labor/StructureDefinition/ObservationLab"></profile>
            </meta>
            <identifier>
               <use value="usual"></use>
               <type>
                  <coding>
                     <system value="http://terminology.hl7.org/CodeSystem/v2-0203"></system>
                     <code value="OBI"></code>
                     <display value="Optometrist license number"></display>
                  </coding>
               </type>
               <system value="http://www.umontreal.ca/labevents"></system>
               <value value="838434"></value>
               <assigner>
                  <reference value="10076958"></reference>
               </assigner>
            </identifier>
            <partOf>
               <reference value="24463507"></reference>
            </partOf>
            <status value="final"></status>
            <code>
               <text value="White Blood Cells"></text>
            </code>
            <subject>
               <reference value="10076958"></reference>
            </subject>
            <effectiveDateTime value="2113-04-02T00:00:00+00:00"></effectiveDateTime>
            <valueQuantity>
               <value value="10.7"></value>
               <unit value="K/uL"></unit>
            </valueQuantity>
         </Observation>
      </resource>
      <request>
         <method value="POST"></method>
         <url value="Observation"></url>
      </request>
   </entry>
   <entry>
      <resource>
         <Observation xmlns="http://hl7.org/fhir">
            <meta>
               <profile value="https://www.umontreal.ca/fhir/core/modul-labor/StructureDefinition/ObservationLab"></profile>
            </meta>
            <identifier>
               <use value="usual"></use>
               <type>
                  <coding>
                     <system value="http://terminology.hl7.org/CodeSystem/v2-0203"></system>
                     <code value="OBI"></code>
                     <display value="Optometrist license number"></display>
                  </coding>
               </type>
               <system value="http://www.umontreal.ca/labevents"></system>
               <value value="838435"></value>
               <assigner>
                  <reference value="10076958"></reference>
               </assigner>
            </identifier>
            <partOf>
               <reference value="24463507"></reference>
            </partOf>
            <status value="final"></status>
            <code>
               <text value="RDW-SD"></text>
            </code>
            <subject>
               <reference value="10076958"></reference>
            </subject>
            <effectiveDateTime value="2113-04-02T00:00:00+00:00"></effectiveDateTime>
            <valueQuantity>
               <value value="48.5"></value>
               <unit value="fL"></unit>
            </valueQuantity>
         </Observation>
      </resource>
      <request>
         <method value="POST"></method>
         <url value="Observation"></url>
      </request>
   </entry>
   <entry>
      <resource>
         <Observation xmlns="http://hl7.org/fhir">
            <meta>
               <profile value="https://www.umontreal.ca/fhir/core/modul-labor/StructureDefinition/ObservationLab"></profile>
            </meta>
            <identifier>
               <use value="usual"></use>
               <type>
                  <coding>
                     <system value="http://terminology.hl7.org/CodeSystem/v2-0203"></system>
                     <code value="OBI"></code>
                     <display value="Optometrist license number"></display>
                  </coding>
               </type>
               <system value="http://www.umontreal.ca/labevents"></system>
               <value value="838438"></value>
               <assigner>
                  <reference value="10076958"></reference>
               </assigner>
            </identifier>
            <partOf>
               <reference value="24463507"></reference>
            </partOf>
            <status value="final"></status>
            <code>
               <text value="Blue Top Hold"></text>
            </code>
            <subject>
               <reference value="10076958"></reference>
            </subject>
            <effectiveDateTime value="2113-04-02T00:00:00+00:00"></effectiveDateTime>
            <dataAbsentReason>
               <coding>
                  <system value="http://terminology.hl7.org/CodeSystem/data-absent-reason"></system>
                  <code value="asked-unknown"></code>
                  <display value="Asked But Unknown"></display>
               </coding>
            </dataAbsentReason>
            <note>
               <text value="___"></text>
            </note>
         </Observation>
      </resource>
      <request>
         <method value="POST"></method>
         <url value="Observation"></url>
      </request>
   </entry>
   <entry>
      <resource>
         <Observation xmlns="http://hl7.org/fhir">
            <meta>
               <profile value="https://www.umontreal.ca/fhir/core/modul-labor/StructureDefinition/ObservationLab"></profile>
            </meta>
            <identifier>
               <use value="usual"></use>
               <type>
                  <coding>
                     <system value="http://terminology.hl7.org/CodeSystem/v2-0203"></system>
                     <code value="OBI"></code>
                     <display value="Optometrist license number"></display>
                  </coding>
               </type>
               <system value="http://www.umontreal.ca/labevents"></system>
               <value value="838439"></value>
               <assigner>
                  <reference value="10076958"></reference>
               </assigner>
            </identifier>
            <partOf>
               <reference value="24463507"></reference>
            </partOf>
            <status value="final"></status>
            <code>
               <text value="INR(PT)"></text>
            </code>
            <subject>
               <reference value="10076958"></reference>
            </subject>
            <effectiveDateTime value="2113-04-02T00:00:00+00:00"></effectiveDateTime>
            <valueQuantity>
               <value value="1.3"></value>
            </valueQuantity>
         </Observation>
      </resource>
      <request>
         <method value="POST"></method>
         <url value="Observation"></url>
      </request>
   </entry>
   <entry>
      <resource>
         <Observation xmlns="http://hl7.org/fhir">
            <meta>
               <profile value="https://www.umontreal.ca/fhir/core/modul-labor/StructureDefinition/ObservationLab"></profile>
            </meta>
            <identifier>
               <use value="usual"></use>
               <type>
                  <coding>
                     <system value="http://terminology.hl7.org/CodeSystem/v2-0203"></system>
                     <code value="OBI"></code>
                     <display value="Optometrist license number"></display>
                  </coding>
               </type>
               <system value="http://www.umontreal.ca/labevents"></system>
               <value value="838440"></value>
               <assigner>
                  <reference value="10076958"></reference>
               </assigner>
            </identifier>
            <partOf>
               <reference value="24463507"></reference>
            </partOf>
            <status value="final"></status>
            <code>
               <text value="PT"></text>
            </code>
            <subject>
               <reference value="10076958"></reference>
            </subject>
            <effectiveDateTime value="2113-04-02T00:00:00+00:00"></effectiveDateTime>
            <valueQuantity>
               <value value="14.7"></value>
               <unit value="sec"></unit>
            </valueQuantity>
         </Observation>
      </resource>
      <request>
         <method value="POST"></method>
         <url value="Observation"></url>
      </request>
   </entry>
   <entry>
      <resource>
         <Observation xmlns="http://hl7.org/fhir">
            <meta>
               <profile value="https://www.umontreal.ca/fhir/core/modul-labor/StructureDefinition/ObservationLab"></profile>
            </meta>
            <identifier>
               <use value="usual"></use>
               <type>
                  <coding>
                     <system value="http://terminology.hl7.org/CodeSystem/v2-0203"></system>
                     <code value="OBI"></code>
                     <display value="Optometrist license number"></display>
                  </coding>
               </type>
               <system value="http://www.umontreal.ca/labevents"></system>
               <value value="838441"></value>
               <assigner>
                  <reference value="10076958"></reference>
               </assigner>
            </identifier>
            <partOf>
               <reference value="24463507"></reference>
            </partOf>
            <status value="final"></status>
            <code>
               <text value="Anion Gap"></text>
            </code>
            <subject>
               <reference value="10076958"></reference>
            </subject>
            <effectiveDateTime value="2113-04-02T00:00:00+00:00"></effectiveDateTime>
            <valueQuantity>
               <value value="13.0"></value>
               <unit value="mEq/L"></unit>
            </valueQuantity>
         </Observation>
      </resource>
      <request>
         <method value="POST"></method>
         <url value="Observation"></url>
      </request>
   </entry>
   <entry>
      <resource>
         <Observation xmlns="http://hl7.org/fhir">
            <meta>
               <profile value="https://www.umontreal.ca/fhir/core/modul-labor/StructureDefinition/ObservationLab"></profile>
            </meta>
            <identifier>
               <use value="usual"></use>
               <type>
                  <coding>
                     <system value="http://terminology.hl7.org/CodeSystem/v2-0203"></system>
                     <code value="OBI"></code>
                     <display value="Optometrist license number"></display>
                  </coding>
               </type>
               <system value="http://www.umontreal.ca/labevents"></system>
               <value value="838442"></value>
               <assigner>
                  <reference value="10076958"></reference>
               </assigner>
            </identifier>
            <partOf>
               <reference value="24463507"></reference>
            </partOf>
            <status value="final"></status>
            <code>
               <text value="Bicarbonate"></text>
            </code>
            <subject>
               <reference value="10076958"></reference>
            </subject>
            <effectiveDateTime value="2113-04-02T00:00:00+00:00"></effectiveDateTime>
            <valueQuantity>
               <value value="26.0"></value>
               <unit value="mEq/L"></unit>
            </valueQuantity>
         </Observation>
      </resource>
      <request>
         <method value="POST"></method>
         <url value="Observation"></url>
      </request>
   </entry>
   <entry>
      <resource>
         <Observation xmlns="http://hl7.org/fhir">
            <meta>
               <profile value="https://www.umontreal.ca/fhir/core/modul-labor/StructureDefinition/ObservationLab"></profile>
            </meta>
            <identifier>
               <use value="usual"></use>
               <type>
                  <coding>
                     <system value="http://terminology.hl7.org/CodeSystem/v2-0203"></system>
                     <code value="OBI"></code>
                     <display value="Optometrist license number"></display>
                  </coding>
               </type>
               <system value="http://www.umontreal.ca/labevents"></system>
               <value value="838443"></value>
               <assigner>
                  <reference value="10076958"></reference>
               </assigner>
            </identifier>
            <partOf>
               <reference value="24463507"></reference>
            </partOf>
            <status value="final"></status>
            <code>
               <text value="Calcium, Total"></text>
            </code>
            <subject>
               <reference value="10076958"></reference>
            </subject>
            <effectiveDateTime value="2113-04-02T00:00:00+00:00"></effectiveDateTime>
            <valueQuantity>
               <value value="8.2"></value>
               <unit value="mg/dL"></unit>
            </valueQuantity>
         </Observation>
      </resource>
      <request>
         <method value="POST"></method>
         <url value="Observation"></url>
      </request>
   </entry>
   <entry>
      <resource>
         <Observation xmlns="http://hl7.org/fhir">
            <meta>
               <profile value="https://www.umontreal.ca/fhir/core/modul-labor/StructureDefinition/ObservationLab"></profile>
            </meta>
            <identifier>
               <use value="usual"></use>
               <type>
                  <coding>
                     <system value="http://terminology.hl7.org/CodeSystem/v2-0203"></system>
                     <code value="OBI"></code>
                     <display value="Optometrist license number"></display>
                  </coding>
               </type>
               <system value="http://www.umontreal.ca/labevents"></system>
               <value value="838444"></value>
               <assigner>
                  <reference value="10076958"></reference>
               </assigner>
            </identifier>
            <partOf>
               <reference value="24463507"></reference>
            </partOf>
            <status value="final"></status>
            <code>
               <text value="Chloride"></text>
            </code>
            <subject>
               <reference value="10076958"></reference>
            </subject>
            <effectiveDateTime value="2113-04-02T00:00:00+00:00"></effectiveDateTime>
            <valueQuantity>
               <value value="95.0"></value>
               <unit value="mEq/L"></unit>
            </valueQuantity>
         </Observation>
      </resource>
      <request>
         <method value="POST"></method>
         <url value="Observation"></url>
      </request>
   </entry>
   <entry>
      <resource>
         <Observation xmlns="http://hl7.org/fhir">
            <meta>
               <profile value="https://www.umontreal.ca/fhir/core/modul-labor/StructureDefinition/ObservationLab"></profile>
            </meta>
            <identifier>
               <use value="usual"></use>
               <type>
                  <coding>
                     <system value="http://terminology.hl7.org/CodeSystem/v2-0203"></system>
                     <code value="OBI"></code>
                     <display value="Optometrist license number"></display>
                  </coding>
               </type>
               <system value="http://www.umontreal.ca/labevents"></system>
               <value value="838445"></value>
               <assigner>
                  <reference value="10076958"></reference>
               </assigner>
            </identifier>
            <partOf>
               <reference value="24463507"></reference>
            </partOf>
            <status value="final"></status>
            <code>
               <text value="Creatinine"></text>
            </code>
            <subject>
               <reference value="10076958"></reference>
            </subject>
            <effectiveDateTime value="2113-04-02T00:00:00+00:00"></effectiveDateTime>
            <valueQuantity>
               <value value="0.4"></value>
               <unit value="mg/dL"></unit>
            </valueQuantity>
         </Observation>
      </resource>
      <request>
         <method value="POST"></method>
         <url value="Observation"></url>
      </request>
   </entry>
   <entry>
      <resource>
         <Observation xmlns="http://hl7.org/fhir">
            <meta>
               <profile value="https://www.umontreal.ca/fhir/core/modul-labor/StructureDefinition/ObservationLab"></profile>
            </meta>
            <identifier>
               <use value="usual"></use>
               <type>
                  <coding>
                     <system value="http://terminology.hl7.org/CodeSystem/v2-0203"></system>
                     <code value="OBI"></code>
                     <display value="Optometrist license number"></display>
                  </coding>
               </type>
               <system value="http://www.umontreal.ca/labevents"></system>
               <value value="838446"></value>
               <assigner>
                  <reference value="10076958"></reference>
               </assigner>
            </identifier>
            <partOf>
               <reference value="24463507"></reference>
            </partOf>
            <status value="final"></status>
            <code>
               <text value="Glucose"></text>
            </code>
            <subject>
               <reference value="10076958"></reference>
            </subject>
            <effectiveDateTime value="2113-04-02T00:00:00+00:00"></effectiveDateTime>
            <valueQuantity>
               <value value="85.0"></value>
               <unit value="mg/dL"></unit>
            </valueQuantity>
            <note>
               <text value="IF FASTING, 70-100 NORMAL, &gt;125 PROVISIONAL DIABETES."></text>
            </note>
         </Observation>
      </resource>
      <request>
         <method value="POST"></method>
         <url value="Observation"></url>
      </request>
   </entry>
   <entry>
      <resource>
         <Observation xmlns="http://hl7.org/fhir">
            <meta>
               <profile value="https://www.umontreal.ca/fhir/core/modul-labor/StructureDefinition/ObservationLab"></profile>
            </meta>
            <identifier>
               <use value="usual"></use>
               <type>
                  <coding>
                     <system value="http://terminology.hl7.org/CodeSystem/v2-0203"></system>
                     <code value="OBI"></code>
                     <display value="Optometrist license number"></display>
                  </coding>
               </type>
               <system value="http://www.umontreal.ca/labevents"></system>
               <value value="838447"></value>
               <assigner>
                  <reference value="10076958"></reference>
               </assigner>
            </identifier>
            <partOf>
               <reference value="24463507"></reference>
            </partOf>
            <status value="final"></status>
            <code>
               <text value="Magnesium"></text>
            </code>
            <subject>
               <reference value="10076958"></reference>
            </subject>
            <effectiveDateTime value="2113-04-02T00:00:00+00:00"></effectiveDateTime>
            <valueQuantity>
               <value value="2.3"></value>
               <unit value="mg/dL"></unit>
            </valueQuantity>
         </Observation>
      </resource>
      <request>
         <method value="POST"></method>
         <url value="Observation"></url>
      </request>
   </entry>
   <entry>
      <resource>
         <Observation xmlns="http://hl7.org/fhir">
            <meta>
               <profile value="https://www.umontreal.ca/fhir/core/modul-labor/StructureDefinition/ObservationLab"></profile>
            </meta>
            <identifier>
               <use value="usual"></use>
               <type>
                  <coding>
                     <system value="http://terminology.hl7.org/CodeSystem/v2-0203"></system>
                     <code value="OBI"></code>
                     <display value="Optometrist license number"></display>
                  </coding>
               </type>
               <system value="http://www.umontreal.ca/labevents"></system>
               <value value="838448"></value>
               <assigner>
                  <reference value="10076958"></reference>
               </assigner>
            </identifier>
            <partOf>
               <reference value="24463507"></reference>
            </partOf>
            <status value="final"></status>
            <code>
               <text value="Phosphate"></text>
            </code>
            <subject>
               <reference value="10076958"></reference>
            </subject>
            <effectiveDateTime value="2113-04-02T00:00:00+00:00"></effectiveDateTime>
            <valueQuantity>
               <value value="1.7"></value>
               <unit value="mg/dL"></unit>
            </valueQuantity>
         </Observation>
      </resource>
      <request>
         <method value="POST"></method>
         <url value="Observation"></url>
      </request>
   </entry>
   <entry>
      <resource>
         <Observation xmlns="http://hl7.org/fhir">
            <meta>
               <profile value="https://www.umontreal.ca/fhir/core/modul-labor/StructureDefinition/ObservationLab"></profile>
            </meta>
            <identifier>
               <use value="usual"></use>
               <type>
                  <coding>
                     <system value="http://terminology.hl7.org/CodeSystem/v2-0203"></system>
                     <code value="OBI"></code>
                     <display value="Optometrist license number"></display>
                  </coding>
               </type>
               <system value="http://www.umontreal.ca/labevents"></system>
               <value value="838449"></value>
               <assigner>
                  <reference value="10076958"></reference>
               </assigner>
            </identifier>
            <partOf>
               <reference value="24463507"></reference>
            </partOf>
            <status value="final"></status>
            <code>
               <text value="Potassium"></text>
            </code>
            <subject>
               <reference value="10076958"></reference>
            </subject>
            <effectiveDateTime value="2113-04-02T00:00:00+00:00"></effectiveDateTime>
            <valueQuantity>
               <value value="3.9"></value>
               <unit value="mEq/L"></unit>
            </valueQuantity>
         </Observation>
      </resource>
      <request>
         <method value="POST"></method>
         <url value="Observation"></url>
      </request>
   </entry>
   <entry>
      <resource>
         <Observation xmlns="http://hl7.org/fhir">
            <meta>
               <profile value="https://www.umontreal.ca/fhir/core/modul-labor/StructureDefinition/ObservationLab"></profile>
            </meta>
            <identifier>
               <use value="usual"></use>
               <type>
                  <coding>
                     <system value="http://terminology.hl7.org/CodeSystem/v2-0203"></system>
                     <code value="OBI"></code>
                     <display value="Optometrist license number"></display>
                  </coding>
               </type>
               <system value="http://www.umontreal.ca/labevents"></system>
               <value value="838450"></value>
               <assigner>
                  <reference value="10076958"></reference>
               </assigner>
            </identifier>
            <partOf>
               <reference value="24463507"></reference>
            </partOf>
            <status value="final"></status>
            <code>
               <text value="Sodium"></text>
            </code>
            <subject>
               <reference value="10076958"></reference>
            </subject>
            <effectiveDateTime value="2113-04-02T00:00:00+00:00"></effectiveDateTime>
            <valueQuantity>
               <value value="130.0"></value>
               <unit value="mEq/L"></unit>
            </valueQuantity>
         </Observation>
      </resource>
      <request>
         <method value="POST"></method>
         <url value="Observation"></url>
      </request>
   </entry>
   <entry>
      <resource>
         <Observation xmlns="http://hl7.org/fhir">
            <meta>
               <profile value="https://www.umontreal.ca/fhir/core/modul-labor/StructureDefinition/ObservationLab"></profile>
            </meta>
            <identifier>
               <use value="usual"></use>
               <type>
                  <coding>
                     <system value="http://terminology.hl7.org/CodeSystem/v2-0203"></system>
                     <code value="OBI"></code>
                     <display value="Optometrist license number"></display>
                  </coding>
               </type>
               <system value="http://www.umontreal.ca/labevents"></system>
               <value value="838451"></value>
               <assigner>
                  <reference value="10076958"></reference>
               </assigner>
            </identifier>
            <partOf>
               <reference value="24463507"></reference>
            </partOf>
            <status value="final"></status>
            <code>
               <text value="Urea Nitrogen"></text>
            </code>
            <subject>
               <reference value="10076958"></reference>
            </subject>
            <effectiveDateTime value="2113-04-02T00:00:00+00:00"></effectiveDateTime>
            <valueQuantity>
               <value value="8.0"></value>
               <unit value="mg/dL"></unit>
            </valueQuantity>
         </Observation>
      </resource>
      <request>
         <method value="POST"></method>
         <url value="Observation"></url>
      </request>
   </entry>
   <entry>
      <resource>
         <Observation xmlns="http://hl7.org/fhir">
            <meta>
               <profile value="https://www.umontreal.ca/fhir/core/modul-labor/StructureDefinition/ObservationLab"></profile>
            </meta>
            <identifier>
               <use value="usual"></use>
               <type>
                  <coding>
                     <system value="http://terminology.hl7.org/CodeSystem/v2-0203"></system>
                     <code value="OBI"></code>
                     <display value="Optometrist license number"></display>
                  </coding>
               </type>
               <system value="http://www.umontreal.ca/labevents"></system>
               <value value="838452"></value>
               <assigner>
                  <reference value="10076958"></reference>
               </assigner>
            </identifier>
            <partOf>
               <reference value="24463507"></reference>
            </partOf>
            <status value="final"></status>
            <code>
               <text value="Anion Gap"></text>
            </code>
            <subject>
               <reference value="10076958"></reference>
            </subject>
            <effectiveDateTime value="2113-04-03T00:00:00+00:00"></effectiveDateTime>
            <valueQuantity>
               <value value="20.0"></value>
               <unit value="mEq/L"></unit>
            </valueQuantity>
         </Observation>
      </resource>
      <request>
         <method value="POST"></method>
         <url value="Observation"></url>
      </request>
   </entry>
   <entry>
      <resource>
         <Observation xmlns="http://hl7.org/fhir">
            <meta>
               <profile value="https://www.umontreal.ca/fhir/core/modul-labor/StructureDefinition/ObservationLab"></profile>
            </meta>
            <identifier>
               <use value="usual"></use>
               <type>
                  <coding>
                     <system value="http://terminology.hl7.org/CodeSystem/v2-0203"></system>
                     <code value="OBI"></code>
                     <display value="Optometrist license number"></display>
                  </coding>
               </type>
               <system value="http://www.umontreal.ca/labevents"></system>
               <value value="838453"></value>
               <assigner>
                  <reference value="10076958"></reference>
               </assigner>
            </identifier>
            <partOf>
               <reference value="24463507"></reference>
            </partOf>
            <status value="final"></status>
            <code>
               <text value="Bicarbonate"></text>
            </code>
            <subject>
               <reference value="10076958"></reference>
            </subject>
            <effectiveDateTime value="2113-04-03T00:00:00+00:00"></effectiveDateTime>
            <valueQuantity>
               <value value="23.0"></value>
               <unit value="mEq/L"></unit>
            </valueQuantity>
         </Observation>
      </resource>
      <request>
         <method value="POST"></method>
         <url value="Observation"></url>
      </request>
   </entry>
   <entry>
      <resource>
         <Observation xmlns="http://hl7.org/fhir">
            <meta>
               <profile value="https://www.umontreal.ca/fhir/core/modul-labor/StructureDefinition/ObservationLab"></profile>
            </meta>
            <identifier>
               <use value="usual"></use>
               <type>
                  <coding>
                     <system value="http://terminology.hl7.org/CodeSystem/v2-0203"></system>
                     <code value="OBI"></code>
                     <display value="Optometrist license number"></display>
                  </coding>
               </type>
               <system value="http://www.umontreal.ca/labevents"></system>
               <value value="838454"></value>
               <assigner>
                  <reference value="10076958"></reference>
               </assigner>
            </identifier>
            <partOf>
               <reference value="24463507"></reference>
            </partOf>
            <status value="final"></status>
            <code>
               <text value="Calcium, Total"></text>
            </code>
            <subject>
               <reference value="10076958"></reference>
            </subject>
            <effectiveDateTime value="2113-04-03T00:00:00+00:00"></effectiveDateTime>
            <valueQuantity>
               <value value="8.8"></value>
               <unit value="mg/dL"></unit>
            </valueQuantity>
         </Observation>
      </resource>
      <request>
         <method value="POST"></method>
         <url value="Observation"></url>
      </request>
   </entry>
   <entry>
      <resource>
         <Observation xmlns="http://hl7.org/fhir">
            <meta>
               <profile value="https://www.umontreal.ca/fhir/core/modul-labor/StructureDefinition/ObservationLab"></profile>
            </meta>
            <identifier>
               <use value="usual"></use>
               <type>
                  <coding>
                     <system value="http://terminology.hl7.org/CodeSystem/v2-0203"></system>
                     <code value="OBI"></code>
                     <display value="Optometrist license number"></display>
                  </coding>
               </type>
               <system value="http://www.umontreal.ca/labevents"></system>
               <value value="838455"></value>
               <assigner>
                  <reference value="10076958"></reference>
               </assigner>
            </identifier>
            <partOf>
               <reference value="24463507"></reference>
            </partOf>
            <status value="final"></status>
            <code>
               <text value="Chloride"></text>
            </code>
            <subject>
               <reference value="10076958"></reference>
            </subject>
            <effectiveDateTime value="2113-04-03T00:00:00+00:00"></effectiveDateTime>
            <valueQuantity>
               <value value="93.0"></value>
               <unit value="mEq/L"></unit>
            </valueQuantity>
         </Observation>
      </resource>
      <request>
         <method value="POST"></method>
         <url value="Observation"></url>
      </request>
   </entry>
   <entry>
      <resource>
         <Observation xmlns="http://hl7.org/fhir">
            <meta>
               <profile value="https://www.umontreal.ca/fhir/core/modul-labor/StructureDefinition/ObservationLab"></profile>
            </meta>
            <identifier>
               <use value="usual"></use>
               <type>
                  <coding>
                     <system value="http://terminology.hl7.org/CodeSystem/v2-0203"></system>
                     <code value="OBI"></code>
                     <display value="Optometrist license number"></display>
                  </coding>
               </type>
               <system value="http://www.umontreal.ca/labevents"></system>
               <value value="838456"></value>
               <assigner>
                  <reference value="10076958"></reference>
               </assigner>
            </identifier>
            <partOf>
               <reference value="24463507"></reference>
            </partOf>
            <status value="final"></status>
            <code>
               <text value="Creatinine"></text>
            </code>
            <subject>
               <reference value="10076958"></reference>
            </subject>
            <effectiveDateTime value="2113-04-03T00:00:00+00:00"></effectiveDateTime>
            <valueQuantity>
               <value value="0.4"></value>
               <unit value="mg/dL"></unit>
            </valueQuantity>
         </Observation>
      </resource>
      <request>
         <method value="POST"></method>
         <url value="Observation"></url>
      </request>
   </entry>
   <entry>
      <resource>
         <Observation xmlns="http://hl7.org/fhir">
            <meta>
               <profile value="https://www.umontreal.ca/fhir/core/modul-labor/StructureDefinition/ObservationLab"></profile>
            </meta>
            <identifier>
               <use value="usual"></use>
               <type>
                  <coding>
                     <system value="http://terminology.hl7.org/CodeSystem/v2-0203"></system>
                     <code value="OBI"></code>
                     <display value="Optometrist license number"></display>
                  </coding>
               </type>
               <system value="http://www.umontreal.ca/labevents"></system>
               <value value="838457"></value>
               <assigner>
                  <reference value="10076958"></reference>
               </assigner>
            </identifier>
            <partOf>
               <reference value="24463507"></reference>
            </partOf>
            <status value="final"></status>
            <code>
               <text value="Glucose"></text>
            </code>
            <subject>
               <reference value="10076958"></reference>
            </subject>
            <effectiveDateTime value="2113-04-03T00:00:00+00:00"></effectiveDateTime>
            <valueQuantity>
               <value value="61.0"></value>
               <unit value="mg/dL"></unit>
            </valueQuantity>
            <note>
               <text value="IF FASTING, 70-100 NORMAL, &gt;125 PROVISIONAL DIABETES."></text>
            </note>
         </Observation>
      </resource>
      <request>
         <method value="POST"></method>
         <url value="Observation"></url>
      </request>
   </entry>
   <entry>
      <resource>
         <Observation xmlns="http://hl7.org/fhir">
            <meta>
               <profile value="https://www.umontreal.ca/fhir/core/modul-labor/StructureDefinition/ObservationLab"></profile>
            </meta>
            <identifier>
               <use value="usual"></use>
               <type>
                  <coding>
                     <system value="http://terminology.hl7.org/CodeSystem/v2-0203"></system>
                     <code value="OBI"></code>
                     <display value="Optometrist license number"></display>
                  </coding>
               </type>
               <system value="http://www.umontreal.ca/labevents"></system>
               <value value="838458"></value>
               <assigner>
                  <reference value="10076958"></reference>
               </assigner>
            </identifier>
            <partOf>
               <reference value="24463507"></reference>
            </partOf>
            <status value="final"></status>
            <code>
               <text value="Magnesium"></text>
            </code>
            <subject>
               <reference value="10076958"></reference>
            </subject>
            <effectiveDateTime value="2113-04-03T00:00:00+00:00"></effectiveDateTime>
            <valueQuantity>
               <value value="1.8"></value>
               <unit value="mg/dL"></unit>
            </valueQuantity>
         </Observation>
      </resource>
      <request>
         <method value="POST"></method>
         <url value="Observation"></url>
      </request>
   </entry>
   <entry>
      <resource>
         <Observation xmlns="http://hl7.org/fhir">
            <meta>
               <profile value="https://www.umontreal.ca/fhir/core/modul-labor/StructureDefinition/ObservationLab"></profile>
            </meta>
            <identifier>
               <use value="usual"></use>
               <type>
                  <coding>
                     <system value="http://terminology.hl7.org/CodeSystem/v2-0203"></system>
                     <code value="OBI"></code>
                     <display value="Optometrist license number"></display>
                  </coding>
               </type>
               <system value="http://www.umontreal.ca/labevents"></system>
               <value value="838459"></value>
               <assigner>
                  <reference value="10076958"></reference>
               </assigner>
            </identifier>
            <partOf>
               <reference value="24463507"></reference>
            </partOf>
            <status value="final"></status>
            <code>
               <text value="Phosphate"></text>
            </code>
            <subject>
               <reference value="10076958"></reference>
            </subject>
            <effectiveDateTime value="2113-04-03T00:00:00+00:00"></effectiveDateTime>
            <valueQuantity>
               <value value="1.7"></value>
               <unit value="mg/dL"></unit>
            </valueQuantity>
         </Observation>
      </resource>
      <request>
         <method value="POST"></method>
         <url value="Observation"></url>
      </request>
   </entry>
   <entry>
      <resource>
         <Observation xmlns="http://hl7.org/fhir">
            <meta>
               <profile value="https://www.umontreal.ca/fhir/core/modul-labor/StructureDefinition/ObservationLab"></profile>
            </meta>
            <identifier>
               <use value="usual"></use>
               <type>
                  <coding>
                     <system value="http://terminology.hl7.org/CodeSystem/v2-0203"></system>
                     <code value="OBI"></code>
                     <display value="Optometrist license number"></display>
                  </coding>
               </type>
               <system value="http://www.umontreal.ca/labevents"></system>
               <value value="838460"></value>
               <assigner>
                  <reference value="10076958"></reference>
               </assigner>
            </identifier>
            <partOf>
               <reference value="24463507"></reference>
            </partOf>
            <status value="final"></status>
            <code>
               <text value="Potassium"></text>
            </code>
            <subject>
               <reference value="10076958"></reference>
            </subject>
            <effectiveDateTime value="2113-04-03T00:00:00+00:00"></effectiveDateTime>
            <valueQuantity>
               <value value="3.5"></value>
               <unit value="mEq/L"></unit>
            </valueQuantity>
         </Observation>
      </resource>
      <request>
         <method value="POST"></method>
         <url value="Observation"></url>
      </request>
   </entry>
   <entry>
      <resource>
         <Observation xmlns="http://hl7.org/fhir">
            <meta>
               <profile value="https://www.umontreal.ca/fhir/core/modul-labor/StructureDefinition/ObservationLab"></profile>
            </meta>
            <identifier>
               <use value="usual"></use>
               <type>
                  <coding>
                     <system value="http://terminology.hl7.org/CodeSystem/v2-0203"></system>
                     <code value="OBI"></code>
                     <display value="Optometrist license number"></display>
                  </coding>
               </type>
               <system value="http://www.umontreal.ca/labevents"></system>
               <value value="838461"></value>
               <assigner>
                  <reference value="10076958"></reference>
               </assigner>
            </identifier>
            <partOf>
               <reference value="24463507"></reference>
            </partOf>
            <status value="final"></status>
            <code>
               <text value="Sodium"></text>
            </code>
            <subject>
               <reference value="10076958"></reference>
            </subject>
            <effectiveDateTime value="2113-04-03T00:00:00+00:00"></effectiveDateTime>
            <valueQuantity>
               <value value="132.0"></value>
               <unit value="mEq/L"></unit>
            </valueQuantity>
         </Observation>
      </resource>
      <request>
         <method value="POST"></method>
         <url value="Observation"></url>
      </request>
   </entry>
   <entry>
      <resource>
         <Observation xmlns="http://hl7.org/fhir">
            <meta>
               <profile value="https://www.umontreal.ca/fhir/core/modul-labor/StructureDefinition/ObservationLab"></profile>
            </meta>
            <identifier>
               <use value="usual"></use>
               <type>
                  <coding>
                     <system value="http://terminology.hl7.org/CodeSystem/v2-0203"></system>
                     <code value="OBI"></code>
                     <display value="Optometrist license number"></display>
                  </coding>
               </type>
               <system value="http://www.umontreal.ca/labevents"></system>
               <value value="838462"></value>
               <assigner>
                  <reference value="10076958"></reference>
               </assigner>
            </identifier>
            <partOf>
               <reference value="24463507"></reference>
            </partOf>
            <status value="final"></status>
            <code>
               <text value="Urea Nitrogen"></text>
            </code>
            <subject>
               <reference value="10076958"></reference>
            </subject>
            <effectiveDateTime value="2113-04-03T00:00:00+00:00"></effectiveDateTime>
            <valueQuantity>
               <value value="7.0"></value>
               <unit value="mg/dL"></unit>
            </valueQuantity>
         </Observation>
      </resource>
      <request>
         <method value="POST"></method>
         <url value="Observation"></url>
      </request>
   </entry>
   <entry>
      <resource>
         <Observation xmlns="http://hl7.org/fhir">
            <meta>
               <profile value="https://www.umontreal.ca/fhir/core/modul-labor/StructureDefinition/ObservationLab"></profile>
            </meta>
            <identifier>
               <use value="usual"></use>
               <type>
                  <coding>
                     <system value="http://terminology.hl7.org/CodeSystem/v2-0203"></system>
                     <code value="OBI"></code>
                     <display value="Optometrist license number"></display>
                  </coding>
               </type>
               <system value="http://www.umontreal.ca/labevents"></system>
               <value value="838463"></value>
               <assigner>
                  <reference value="10076958"></reference>
               </assigner>
            </identifier>
            <partOf>
               <reference value="24463507"></reference>
            </partOf>
            <status value="final"></status>
            <code>
               <text value="Hematocrit"></text>
            </code>
            <subject>
               <reference value="10076958"></reference>
            </subject>
            <effectiveDateTime value="2113-04-03T00:00:00+00:00"></effectiveDateTime>
            <valueQuantity>
               <value value="29.6"></value>
               <unit value="%"></unit>
            </valueQuantity>
         </Observation>
      </resource>
      <request>
         <method value="POST"></method>
         <url value="Observation"></url>
      </request>
   </entry>
   <entry>
      <resource>
         <Observation xmlns="http://hl7.org/fhir">
            <meta>
               <profile value="https://www.umontreal.ca/fhir/core/modul-labor/StructureDefinition/ObservationLab"></profile>
            </meta>
            <identifier>
               <use value="usual"></use>
               <type>
                  <coding>
                     <system value="http://terminology.hl7.org/CodeSystem/v2-0203"></system>
                     <code value="OBI"></code>
                     <display value="Optometrist license number"></display>
                  </coding>
               </type>
               <system value="http://www.umontreal.ca/labevents"></system>
               <value value="838464"></value>
               <assigner>
                  <reference value="10076958"></reference>
               </assigner>
            </identifier>
            <partOf>
               <reference value="24463507"></reference>
            </partOf>
            <status value="final"></status>
            <code>
               <text value="Hemoglobin"></text>
            </code>
            <subject>
               <reference value="10076958"></reference>
            </subject>
            <effectiveDateTime value="2113-04-03T00:00:00+00:00"></effectiveDateTime>
            <valueQuantity>
               <value value="9.9"></value>
               <unit value="g/dL"></unit>
            </valueQuantity>
         </Observation>
      </resource>
      <request>
         <method value="POST"></method>
         <url value="Observation"></url>
      </request>
   </entry>
   <entry>
      <resource>
         <Observation xmlns="http://hl7.org/fhir">
            <meta>
               <profile value="https://www.umontreal.ca/fhir/core/modul-labor/StructureDefinition/ObservationLab"></profile>
            </meta>
            <identifier>
               <use value="usual"></use>
               <type>
                  <coding>
                     <system value="http://terminology.hl7.org/CodeSystem/v2-0203"></system>
                     <code value="OBI"></code>
                     <display value="Optometrist license number"></display>
                  </coding>
               </type>
               <system value="http://www.umontreal.ca/labevents"></system>
               <value value="838465"></value>
               <assigner>
                  <reference value="10076958"></reference>
               </assigner>
            </identifier>
            <partOf>
               <reference value="24463507"></reference>
            </partOf>
            <status value="final"></status>
            <code>
               <text value="MCH"></text>
            </code>
            <subject>
               <reference value="10076958"></reference>
            </subject>
            <effectiveDateTime value="2113-04-03T00:00:00+00:00"></effectiveDateTime>
            <valueQuantity>
               <value value="31.8"></value>
               <unit value="pg"></unit>
            </valueQuantity>
         </Observation>
      </resource>
      <request>
         <method value="POST"></method>
         <url value="Observation"></url>
      </request>
   </entry>
   <entry>
      <resource>
         <Observation xmlns="http://hl7.org/fhir">
            <meta>
               <profile value="https://www.umontreal.ca/fhir/core/modul-labor/StructureDefinition/ObservationLab"></profile>
            </meta>
            <identifier>
               <use value="usual"></use>
               <type>
                  <coding>
                     <system value="http://terminology.hl7.org/CodeSystem/v2-0203"></system>
                     <code value="OBI"></code>
                     <display value="Optometrist license number"></display>
                  </coding>
               </type>
               <system value="http://www.umontreal.ca/labevents"></system>
               <value value="838466"></value>
               <assigner>
                  <reference value="10076958"></reference>
               </assigner>
            </identifier>
            <partOf>
               <reference value="24463507"></reference>
            </partOf>
            <status value="final"></status>
            <code>
               <text value="MCHC"></text>
            </code>
            <subject>
               <reference value="10076958"></reference>
            </subject>
            <effectiveDateTime value="2113-04-03T00:00:00+00:00"></effectiveDateTime>
            <valueQuantity>
               <value value="33.4"></value>
               <unit value="g/dL"></unit>
            </valueQuantity>
         </Observation>
      </resource>
      <request>
         <method value="POST"></method>
         <url value="Observation"></url>
      </request>
   </entry>
   <entry>
      <resource>
         <Observation xmlns="http://hl7.org/fhir">
            <meta>
               <profile value="https://www.umontreal.ca/fhir/core/modul-labor/StructureDefinition/ObservationLab"></profile>
            </meta>
            <identifier>
               <use value="usual"></use>
               <type>
                  <coding>
                     <system value="http://terminology.hl7.org/CodeSystem/v2-0203"></system>
                     <code value="OBI"></code>
                     <display value="Optometrist license number"></display>
                  </coding>
               </type>
               <system value="http://www.umontreal.ca/labevents"></system>
               <value value="838467"></value>
               <assigner>
                  <reference value="10076958"></reference>
               </assigner>
            </identifier>
            <partOf>
               <reference value="24463507"></reference>
            </partOf>
            <status value="final"></status>
            <code>
               <text value="MCV"></text>
            </code>
            <subject>
               <reference value="10076958"></reference>
            </subject>
            <effectiveDateTime value="2113-04-03T00:00:00+00:00"></effectiveDateTime>
            <valueQuantity>
               <value value="95.0"></value>
               <unit value="fL"></unit>
            </valueQuantity>
         </Observation>
      </resource>
      <request>
         <method value="POST"></method>
         <url value="Observation"></url>
      </request>
   </entry>
   <entry>
      <resource>
         <Observation xmlns="http://hl7.org/fhir">
            <meta>
               <profile value="https://www.umontreal.ca/fhir/core/modul-labor/StructureDefinition/ObservationLab"></profile>
            </meta>
            <identifier>
               <use value="usual"></use>
               <type>
                  <coding>
                     <system value="http://terminology.hl7.org/CodeSystem/v2-0203"></system>
                     <code value="OBI"></code>
                     <display value="Optometrist license number"></display>
                  </coding>
               </type>
               <system value="http://www.umontreal.ca/labevents"></system>
               <value value="838468"></value>
               <assigner>
                  <reference value="10076958"></reference>
               </assigner>
            </identifier>
            <partOf>
               <reference value="24463507"></reference>
            </partOf>
            <status value="final"></status>
            <code>
               <text value="Platelet Count"></text>
            </code>
            <subject>
               <reference value="10076958"></reference>
            </subject>
            <effectiveDateTime value="2113-04-03T00:00:00+00:00"></effectiveDateTime>
            <valueQuantity>
               <value value="175.0"></value>
               <unit value="K/uL"></unit>
            </valueQuantity>
         </Observation>
      </resource>
      <request>
         <method value="POST"></method>
         <url value="Observation"></url>
      </request>
   </entry>
   <entry>
      <resource>
         <Observation xmlns="http://hl7.org/fhir">
            <meta>
               <profile value="https://www.umontreal.ca/fhir/core/modul-labor/StructureDefinition/ObservationLab"></profile>
            </meta>
            <identifier>
               <use value="usual"></use>
               <type>
                  <coding>
                     <system value="http://terminology.hl7.org/CodeSystem/v2-0203"></system>
                     <code value="OBI"></code>
                     <display value="Optometrist license number"></display>
                  </coding>
               </type>
               <system value="http://www.umontreal.ca/labevents"></system>
               <value value="838469"></value>
               <assigner>
                  <reference value="10076958"></reference>
               </assigner>
            </identifier>
            <partOf>
               <reference value="24463507"></reference>
            </partOf>
            <status value="final"></status>
            <code>
               <text value="RDW"></text>
            </code>
            <subject>
               <reference value="10076958"></reference>
            </subject>
            <effectiveDateTime value="2113-04-03T00:00:00+00:00"></effectiveDateTime>
            <valueQuantity>
               <value value="14.0"></value>
               <unit value="%"></unit>
            </valueQuantity>
         </Observation>
      </resource>
      <request>
         <method value="POST"></method>
         <url value="Observation"></url>
      </request>
   </entry>
   <entry>
      <resource>
         <Observation xmlns="http://hl7.org/fhir">
            <meta>
               <profile value="https://www.umontreal.ca/fhir/core/modul-labor/StructureDefinition/ObservationLab"></profile>
            </meta>
            <identifier>
               <use value="usual"></use>
               <type>
                  <coding>
                     <system value="http://terminology.hl7.org/CodeSystem/v2-0203"></system>
                     <code value="OBI"></code>
                     <display value="Optometrist license number"></display>
                  </coding>
               </type>
               <system value="http://www.umontreal.ca/labevents"></system>
               <value value="838470"></value>
               <assigner>
                  <reference value="10076958"></reference>
               </assigner>
            </identifier>
            <partOf>
               <reference value="24463507"></reference>
            </partOf>
            <status value="final"></status>
            <code>
               <text value="Red Blood Cells"></text>
            </code>
            <subject>
               <reference value="10076958"></reference>
            </subject>
            <effectiveDateTime value="2113-04-03T00:00:00+00:00"></effectiveDateTime>
            <valueQuantity>
               <value value="3.11"></value>
               <unit value="m/uL"></unit>
            </valueQuantity>
         </Observation>
      </resource>
      <request>
         <method value="POST"></method>
         <url value="Observation"></url>
      </request>
   </entry>
   <entry>
      <resource>
         <Observation xmlns="http://hl7.org/fhir">
            <meta>
               <profile value="https://www.umontreal.ca/fhir/core/modul-labor/StructureDefinition/ObservationLab"></profile>
            </meta>
            <identifier>
               <use value="usual"></use>
               <type>
                  <coding>
                     <system value="http://terminology.hl7.org/CodeSystem/v2-0203"></system>
                     <code value="OBI"></code>
                     <display value="Optometrist license number"></display>
                  </coding>
               </type>
               <system value="http://www.umontreal.ca/labevents"></system>
               <value value="838471"></value>
               <assigner>
                  <reference value="10076958"></reference>
               </assigner>
            </identifier>
            <partOf>
               <reference value="24463507"></reference>
            </partOf>
            <status value="final"></status>
            <code>
               <text value="White Blood Cells"></text>
            </code>
            <subject>
               <reference value="10076958"></reference>
            </subject>
            <effectiveDateTime value="2113-04-03T00:00:00+00:00"></effectiveDateTime>
            <valueQuantity>
               <value value="9.3"></value>
               <unit value="K/uL"></unit>
            </valueQuantity>
         </Observation>
      </resource>
      <request>
         <method value="POST"></method>
         <url value="Observation"></url>
      </request>
   </entry>
   <entry>
      <resource>
         <Observation xmlns="http://hl7.org/fhir">
            <meta>
               <profile value="https://www.umontreal.ca/fhir/core/modul-labor/StructureDefinition/ObservationLab"></profile>
            </meta>
            <identifier>
               <use value="usual"></use>
               <type>
                  <coding>
                     <system value="http://terminology.hl7.org/CodeSystem/v2-0203"></system>
                     <code value="OBI"></code>
                     <display value="Optometrist license number"></display>
                  </coding>
               </type>
               <system value="http://www.umontreal.ca/labevents"></system>
               <value value="838472"></value>
               <assigner>
                  <reference value="10076958"></reference>
               </assigner>
            </identifier>
            <partOf>
               <reference value="24463507"></reference>
            </partOf>
            <status value="final"></status>
            <code>
               <text value="RDW-SD"></text>
            </code>
            <subject>
               <reference value="10076958"></reference>
            </subject>
            <effectiveDateTime value="2113-04-03T00:00:00+00:00"></effectiveDateTime>
            <valueQuantity>
               <value value="48.7"></value>
               <unit value="fL"></unit>
            </valueQuantity>
         </Observation>
      </resource>
      <request>
         <method value="POST"></method>
         <url value="Observation"></url>
      </request>
   </entry>
</Bundle>